time,seconds_elapsed,z,y,x
1773149842044000500,0.11100048828125,-19.676532745361328,13.827529907226562,-25.181686401367188
1773149842054037200,0.121037353515625,-20.53580665588379,14.765167236328125,-24.288658142089844
1773149842064073200,0.1310732421875,-21.02063751220703,15.49542236328125,-23.30242919921875
1773149842074109400,0.141109375,-21.884525299072266,16.39825439453125,-22.504119873046875
1773149842084145400,0.1511455078125,-22.516464233398438,16.955734252929688,-21.593093872070312
1773149842094181400,0.161181396484375,-23.246549606323242,17.435791015625,-20.395973205566406
1773149842104217300,0.17121728515625,-24.04059410095215,17.981216430664062,-19.373138427734375
1773149842114253300,0.18125341796875,-24.880151748657227,18.3436279296875,-18.18109893798828
1773149842124289300,0.191289306640625,-25.393035888671875,18.316802978515625,-17.27477264404297
1773149842134326300,0.201326171875,-26.194971084594727,18.471786499023438,-16.32421112060547
1773149842144362200,0.2113623046875,-26.730484008789062,18.290618896484375,-15.485397338867188
1773149842154398200,0.221398193359375,-27.55150032043457,18.051971435546875,-14.430374145507812
1773149842164434200,0.23143408203125,-27.55150032043457,18.051971435546875,-14.430374145507812
1773149842174470400,0.241470458984375,-28.223512649536133,17.739028930664062,-14.001716613769531
1773149842184506400,0.25150634765625,-28.581329345703125,17.382522583007812,-13.932701110839844
1773149842194542300,0.261542236328125,-28.577762603759766,17.077362060546875,-14.225181579589844
1773149842204577500,0.27157763671875,-28.444915771484375,16.888717651367188,-14.325927734375
1773149842214614300,0.2816142578125,-28.542333602905273,16.9237060546875,-14.524261474609375
1773149842224650500,0.291650390625,-28.343584060668945,16.757064819335938,-14.586273193359375
1773149842234686500,0.3016865234375,-28.277183532714844,16.771041870117188,-14.84344482421875
1773149842244722400,0.311722412109375,-27.91433334350586,16.99102783203125,-14.980072021484375
1773149842254758400,0.32175830078125,-27.757661819458008,17.043930053710938,-15.528785705566406
1773149842264794400,0.33179443359375,-27.49435806274414,16.96343994140625,-15.935501098632812
1773149842274830300,0.341830322265625,-27.444242477416992,16.974761962890625,-16.120628356933594
1773149842284867300,0.351867431640625,-27.359058380126953,16.960556030273438,-16.352272033691406
1773149842294903300,0.3619033203125,-26.721378326416016,16.7724609375,-16.425880432128906
1773149842304939300,0.371939208984375,-26.6680965423584,16.775863647460938,-16.736984252929688
1773149842314975200,0.381975341796875,-26.54630470275879,16.973541259765625,-17.121017456054688
1773149842325011200,0.39201123046875,-26.230958938598633,16.9254150390625,-17.458267211914062
1773149842335047200,0.402047119140625,-25.685062408447266,17.370086669921875,-17.808692932128906
1773149842345083100,0.412083251953125,-24.953102111816406,17.852127075195312,-18.11376953125
1773149842355119400,0.422119384765625,-24.53900146484375,18.342514038085938,-18.539627075195312
1773149842365156400,0.43215625,-23.894371032714844,18.571701049804688,-19.062515258789062
1773149842375192300,0.4421923828125,-23.309226989746094,18.981002807617188,-19.445968627929688
1773149842385228300,0.452228271484375,-22.83924674987793,18.953323364257812,-19.883277893066406
1773149842395264500,0.462264404296875,-22.39524269104004,18.844802856445312,-20.311302185058594
1773149842405300500,0.472300537109375,-21.965747833251953,18.611831665039062,-20.675628662109375
1773149842415336400,0.48233642578125,-22.08148956298828,17.948654174804688,-21.11376190185547
1773149842425372400,0.492372314453125,-21.622928619384766,17.451644897460938,-21.710914611816406
1773149842435409400,0.502409423828125,-21.26143455505371,16.971649169921875,-21.966903686523438
1773149842445445400,0.5124453125,-21.150875091552734,16.397476196289062,-22.53394317626953
1773149842455481300,0.5224814453125,-20.676013946533203,15.868759155273438,-22.929542541503906
1773149842465517300,0.532517333984375,-20.388235092163086,15.473953247070312,-23.547210693359375
1773149842475553300,0.54255322265625,-19.931049346923828,15.254768371582031,-23.97834014892578
1773149842485589200,0.55258935546875,-19.231563568115234,14.796424865722656,-24.425575256347656
1773149842495625200,0.562625244140625,-18.698192596435547,14.537811279296875,-24.84711456298828
1773149842505662500,0.572662353515625,-18.161273956298828,14.48162841796875,-25.3404541015625
1773149842515698400,0.582698486328125,-17.352224349975586,14.4814453125,-25.707069396972656
1773149842525734400,0.592734375,-16.921161651611328,14.818389892578125,-25.929672241210938
1773149842535770400,0.602770263671875,-16.41913604736328,15.06219482421875,-25.95716094970703
1773149842545806300,0.612806396484375,-16.52985382080078,15.429924011230469,-25.963348388671875
1773149842555842300,0.62284228515625,-16.570545196533203,16.052467346191406,-25.932769775390625
1773149842565878300,0.632878173828125,-16.3751277923584,16.786956787109375,-25.752685546875
1773149842575914500,0.64291455078125,-16.03717803955078,17.64422607421875,-25.462799072265625
1773149842585951200,0.652951171875,-15.787483215332031,18.494125366210938,-25.091163635253906
1773149842595987200,0.6629873046875,-15.296228408813477,19.580551147460938,-24.783721923828125
1773149842606023400,0.6730234375,-14.969082832336426,20.575027465820312,-24.465736389160156
1773149842616059400,0.683059326171875,-14.434412002563477,21.79931640625,-23.97802734375
1773149842626095400,0.693095458984375,-13.987594604492188,23.1077880859375,-23.09490966796875
1773149842636131300,0.70313134765625,-14.002716064453125,24.282257080078125,-22.261924743652344
1773149842646167300,0.713167236328125,-14.166534423828125,25.286346435546875,-21.220977783203125
1773149842656204500,0.72320458984375,-14.562864303588867,26.32037353515625,-20.098854064941406
1773149842666240500,0.733240478515625,-15.674771308898926,27.188812255859375,-18.7294921875
1773149842676276500,0.7432763671875,-16.583444595336914,27.719650268554688,-17.17913818359375
1773149842686312400,0.7533125,-17.845230102539062,27.953140258789062,-15.753196716308594
1773149842696348400,0.763348388671875,-18.82412338256836,28.166549682617188,-14.266593933105469
1773149842706384400,0.77338427734375,-20.00064468383789,28.239669799804688,-12.81573486328125
1773149842716420400,0.78342041015625,-20.90081024169922,28.328445434570312,-11.497772216796875
1773149842726457300,0.793457275390625,-21.722618103027344,28.342544555664062,-10.042877197265625
1773149842736493300,0.803493408203125,-22.419721603393555,28.348495483398438,-9.091545104980469
1773149842746529300,0.813529296875,-23.212051391601562,28.302597045898438,-7.91253662109375
1773149842756565200,0.823565185546875,-23.459083557128906,28.371353149414062,-6.9411773681640625
1773149842766601200,0.833601318359375,-23.660776138305664,28.466354370117188,-6.015174865722656
1773149842776637400,0.843637451171875,-23.98041343688965,28.368896484375,-5.257698059082031
1773149842786673400,0.85367333984375,-24.166311264038086,28.387008666992188,-4.728584289550781
1773149842796710100,0.863710205078125,-24.412935256958008,28.209823608398438,-4.360481262207031
1773149842806746400,0.873746337890625,-24.683292388916016,28.051742553710938,-4.147621154785156
1773149842816782300,0.8837822265625,-24.909263610839844,27.897994995117188,-3.8804931640625
1773149842826818600,0.893818603515625,-25.266584396362305,27.674407958984375,-3.6951065063476562
1773149842836854500,0.9038544921875,-25.53167152404785,27.379409790039062,-3.581512451171875
1773149842846890500,0.913890380859375,-25.648927688598633,27.13702392578125,-3.4673309326171875
1773149842856926500,0.923926513671875,-25.880720138549805,26.912139892578125,-3.307861328125
1773149842866962400,0.93396240234375,-25.945281982421875,26.752120971679688,-2.9475326538085938
1773149842876999400,0.94399951171875,-26.537521362304688,26.503280639648438,-2.8018417358398438
1773149842887035400,0.954035400390625,-26.746793746948242,26.233367919921875,-2.6870956420898438
1773149842897071400,0.9640712890625,-27.090465545654297,25.897186279296875,-2.48175048828125
1773149842907107300,0.974107421875,-27.49508285522461,25.608505249023438,-2.224212646484375
1773149842917143300,0.984143310546875,-27.720361709594727,25.45831298828125,-1.8174209594726562
1773149842927179300,0.99417919921875,-27.862428665161133,25.174514770507812,-1.637847900390625
1773149842937215200,1.00421533203125,-27.899457931518555,24.9576416015625,-1.5229110717773438
1773149842947252200,1.014252197265625,-28.058780670166016,24.799789428710938,-1.3715744018554688
1773149842957288200,1.0242880859375,-28.20216178894043,24.69976806640625,-1.26318359375
1773149842967324200,1.03432421875,-28.261014938354492,24.521392822265625,-1.1364669799804688
1773149842977360100,1.044360107421875,-28.21149253845215,24.431655883789062,-0.8458786010742188
1773149842987396400,1.054396240234375,-28.382217407226562,24.388824462890625,-1.1880340576171875
1773149842997432300,1.064432373046875,-28.31806755065918,24.4290771484375,-1.3541336059570312
1773149843007468500,1.074468505859375,-28.23741340637207,24.642807006835938,-1.6391448974609375
1773149843017505300,1.08450537109375,-28.111051559448242,24.853225708007812,-2.0886306762695312
1773149843027541500,1.09454150390625,-27.735675811767578,24.91998291015625,-2.5816116333007812
1773149843037577500,1.104577392578125,-27.784032821655273,24.865814208984375,-3.0514297485351562
1773149843047613400,1.114613525390625,-27.63658905029297,24.870346069335938,-3.5643997192382812
1773149843057649400,1.1246494140625,-27.228164672851562,24.910415649414062,-4.02020263671875
1773149843067685400,1.134685302734375,-27.176490783691406,24.987686157226562,-4.638214111328125
1773149843077721300,1.144721435546875,-27.12643814086914,25.113693237304688,-5.096794128417969
1773149843087758300,1.15475830078125,-27.19771957397461,25.003631591796875,-5.754302978515625
1773149843097794300,1.164794189453125,-27.255722045898438,24.738357543945312,-6.626808166503906
1773149843107830300,1.174830322265625,-27.1400146484375,24.197586059570312,-7.530387878417969
1773149843117866200,1.1848662109375,-26.935070037841797,23.825851440429688,-8.719436645507812
1773149843127902200,1.194902099609375,-26.800546646118164,23.509597778320312,-9.795074462890625
1773149843137938200,1.204938232421875,-26.57797622680664,23.096221923828125,-10.915580749511719
1773149843147974100,1.21497412109375,-26.370878219604492,22.629669189453125,-12.03997802734375
1773149843158011400,1.225011474609375,-25.775732040405273,22.206024169921875,-12.90087890625
1773149843168047400,1.23504736328125,-25.545501708984375,21.905120849609375,-13.468185424804688
1773149843178083300,1.245083251953125,-25.815183639526367,21.504058837890625,-13.705039978027344
1773149843188119300,1.255119384765625,-26.2559871673584,21.397445678710938,-13.897636413574219
1773149843198155500,1.265155517578125,-26.09650230407715,21.223831176757812,-13.969436645507812
1773149843208195800,1.27519580078125,-26.06279182434082,21.136627197265625,-13.6434326171875
1773149843218231800,1.285231689453125,-26.37786102294922,21.133956909179688,-13.356109619140625
1773149843228268800,1.295268798828125,-26.832040786743164,21.06683349609375,-13.101654052734375
1773149843238304800,1.3053046875,-27.010894775390625,21.08905029296875,-12.751121520996094
1773149843248340700,1.3153408203125,-27.199308395385742,20.947006225585938,-12.18939208984375
1773149843258377000,1.325376953125,-27.483631134033203,20.964431762695312,-11.984870910644531
1773149843268413000,1.335412841796875,-27.490333557128906,20.888580322265625,-12.010025024414062
1773149843278449000,1.345448974609375,-27.5272274017334,21.017898559570312,-12.19873046875
1773149843288486000,1.35548583984375,-27.585594177246094,20.704666137695312,-12.130744934082031
1773149843298522000,1.365522216796875,-27.573190689086914,20.381591796875,-12.290061950683594
1773149843308558000,1.37555810546875,-27.59549903869629,19.916412353515625,-12.559921264648438
1773149843318594000,1.385593994140625,-27.802276611328125,19.6793212890625,-12.574348449707031
1773149843328630000,1.395630126953125,-28.254322052001953,19.450912475585938,-12.647499084472656
1773149843338666000,1.405666015625,-28.303422927856445,19.245315551757812,-12.435646057128906
1773149843348702000,1.415701904296875,-28.209863662719727,18.98828125,-12.073631286621094
1773149843358739000,1.425739013671875,-28.542644500732422,19.085342407226562,-12.19146728515625
1773149843368775000,1.43577490234375,-28.57413101196289,18.850753784179688,-12.16326904296875
1773149843378811000,1.445810791015625,-28.636056900024414,18.879776000976562,-12.306877136230469
1773149843388846800,1.455846923828125,-28.898189544677734,18.893524169921875,-12.386260986328125
1773149843398882800,1.4658828125,-28.752193450927734,18.695327758789062,-12.590065002441406
1773149843408918800,1.475918701171875,-28.561420440673828,18.749404907226562,-12.889427185058594
1773149843418954800,1.485954833984375,-28.335033416748047,18.643692016601562,-13.248023986816406
1773149843428992000,1.495991943359375,-28.015844345092773,18.5206298828125,-13.713027954101562
1773149843439028000,1.506028076171875,-27.601198196411133,18.406463623046875,-13.9114990234375
1773149843449064000,1.51606396484375,-27.764808654785156,18.097915649414062,-14.474250793457031
1773149843459100000,1.526099853515625,-27.903242111206055,17.92803955078125,-14.783493041992188
1773149843469136000,1.536135986328125,-27.66676139831543,17.897384643554688,-15.055671691894531
1773149843479172000,1.546172119140625,-27.737140655517578,17.953079223632812,-14.991592407226562
1773149843489208000,1.5562080078125,-27.712514877319336,18.212448120117188,-14.918693542480469
1773149843499245000,1.5662451171875,-27.80472183227539,18.284286499023438,-14.637741088867188
1773149843509281000,1.576281005859375,-27.89647102355957,18.452667236328125,-14.228187561035156
1773149843519317000,1.58631689453125,-28.301433563232422,18.451248168945312,-13.629165649414062
1773149843529353000,1.59635302734375,-28.632291793823242,18.427902221679688,-13.067039489746094
1773149843539389000,1.606388916015625,-28.466951370239258,18.466888427734375,-12.61895751953125
1773149843549425000,1.6164248046875,-28.489723205566406,18.442642211914062,-12.418800354003906
1773149843559462000,1.6264619140625,-28.810094833374023,18.253265380859375,-12.228836059570312
1773149843569497900,1.636497802734375,-29.055299758911133,18.339385986328125,-12.007713317871094
1773149843579533800,1.646533935546875,-29.216978073120117,18.234100341796875,-11.724494934082031
1773149843589570000,1.656570068359375,-29.350778579711914,18.1282958984375,-11.434257507324219
1773149843599606000,1.66660595703125,-29.45755386352539,18.032638549804688,-11.397956848144531
1773149843609642000,1.67664208984375,-29.437150955200195,18.155929565429688,-11.325088500976562
1773149843619678000,1.686677978515625,-29.480958938598633,18.234710693359375,-11.449813842773438
1773149843629715000,1.69671484375,-29.1969051361084,18.281784057617188,-11.41326904296875
1773149843639751000,1.7067509765625,-29.000568389892578,18.326385498046875,-11.720695495605469
1773149843649787000,1.716786865234375,-28.70451545715332,18.56890869140625,-11.931556701660156
1773149843659822800,1.72682275390625,-28.497549057006836,18.8314208984375,-12.359207153320312
1773149843669858800,1.73685888671875,-27.96123504638672,19.16748046875,-12.890693664550781
1773149843679895000,1.74689501953125,-27.427188873291016,19.315704345703125,-13.115821838378906
1773149843689931800,1.756931884765625,-27.34606170654297,19.466522216796875,-13.45501708984375
1773149843699967700,1.7669677734375,-27.27451515197754,19.604507446289062,-13.478981018066406
1773149843710004000,1.77700390625,-27.207366943359375,19.7000732421875,-13.15814208984375
1773149843720040000,1.7870400390625,-27.250051498413086,19.994186401367188,-13.137413024902344
1773149843730076000,1.797075927734375,-26.85578727722168,20.107513427734375,-12.773902893066406
1773149843740112000,1.80711181640625,-26.697956085205078,20.501022338867188,-12.790939331054688
1773149843750147800,1.81714794921875,-26.48584747314453,20.499847412109375,-12.709327697753906
1773149843760185000,1.82718505859375,-26.560739517211914,20.42041015625,-12.681930541992188
1773149843770221000,1.837220947265625,-26.60208511352539,20.19384765625,-12.429473876953125
1773149843780257000,1.847257080078125,-26.7688045501709,19.828506469726562,-12.238311767578125
1773149843790293000,1.85729296875,-27.069189071655273,19.342697143554688,-11.942916870117188
1773149843800329000,1.867328857421875,-27.355525970458984,19.1055908203125,-11.658241271972656
1773149843810365000,1.877364990234375,-27.773941040039062,18.911895751953125,-11.236495971679688
1773149843820402000,1.88740185546875,-27.7188720703125,18.723663330078125,-11.064613342285156
1773149843830438000,1.89743798828125,-27.811311721801758,18.669143676757812,-11.629020690917969
1773149843840473900,1.907473876953125,-27.254968643188477,18.364089965820312,-12.560943603515625
1773149843850509800,1.917509765625,-26.266849517822266,18.056930541992188,-13.858131408691406
1773149843860545800,1.9275458984375,-25.620634078979492,17.722885131835938,-15.564178466796875
1773149843870581800,1.937581787109375,-24.390625,17.459548950195312,-16.9967041015625
1773149843880618000,1.947617919921875,-23.461437225341797,16.900054931640625,-18.661590576171875
1773149843890655000,1.957655029296875,-22.565654754638672,16.223495483398438,-19.811752319335938
1773149843900691000,1.96769091796875,-21.632680892944336,15.703514099121094,-20.809005737304688
1773149843910727000,1.977726806640625,-21.134933471679688,15.188591003417969,-21.62799835205078
1773149843920763100,1.98776318359375,-20.771968841552734,14.571670532226562,-22.27045440673828
1773149843930799000,1.997799072265625,-20.329875946044922,13.813858032226562,-22.86760711669922
1773149843940835000,2.0078349609375,-19.968563079833984,13.206787109375,-23.26318359375
1773149843950872000,2.0178720703125,-19.864953994750977,12.586204528808594,-23.72809600830078
1773149843960908000,2.027907958984375,-19.429161071777344,12.017364501953125,-24.173973083496094
1773149843970944000,2.037944091796875,-19.197641372680664,11.220199584960938,-24.36780548095703
1773149843980980000,2.04797998046875,-19.015819549560547,10.779937744140625,-24.74730682373047
1773149843991016000,2.058015869140625,-19.163158416748047,10.408157348632812,-24.814979553222656
1773149844001052000,2.068052001953125,-19.473472595214844,10.52813720703125,-24.675926208496094
1773149844011088000,2.078087890625,-19.824878692626953,10.824081420898438,-24.375633239746094
1773149844021124900,2.088124755859375,-20.432987213134766,10.8751220703125,-23.851760864257812
1773149844031160800,2.098160888671875,-21.126480102539062,11.082359313964844,-23.280540466308594
1773149844041196800,2.10819677734375,-21.875930786132812,11.175125122070312,-22.786911010742188
1773149844051232800,2.118232666015625,-22.580516815185547,11.163360595703125,-22.186614990234375
1773149844061269000,2.12826904296875,-23.070606231689453,10.978073120117188,-21.48963165283203
1773149844071305000,2.138304931640625,-23.070606231689453,10.978073120117188,-21.48963165283203
1773149844081342000,2.148342041015625,-23.768857955932617,10.506263732910156,-21.2510986328125
1773149844091378000,2.1583779296875,-23.88268280029297,10.401138305664062,-20.906448364257812
1773149844101414000,2.168413818359375,-23.99753761291504,10.554466247558594,-20.96905517578125
1773149844111449900,2.178449951171875,-23.8834171295166,10.77197265625,-20.89911651611328
1773149844121485800,2.18848583984375,-23.646175384521484,10.981742858886719,-20.81572723388672
1773149844131522000,2.19852197265625,-23.51127052307129,11.444862365722656,-20.810348510742188
1773149844141558800,2.208558837890625,-23.491649627685547,11.792396545410156,-20.790939331054688
1773149844151594800,2.2185947265625,-23.56336212158203,12.304862976074219,-20.671005249023438
1773149844161631000,2.228630859375,-23.88422393798828,12.46295166015625,-20.405746459960938
1773149844171667000,2.2386669921875,-23.954465866088867,12.607536315917969,-19.997421264648438
1773149844181703000,2.248702880859375,-24.170507431030273,12.772689819335938,-19.762794494628906
1773149844191739000,2.25873876953125,-24.29362678527832,12.944625854492188,-19.582252502441406
1773149844201774800,2.26877490234375,-24.543800354003906,12.85272216796875,-19.19232940673828
1773149844211808500,2.27880859375,-24.598268508911133,13.059616088867188,-19.06586456298828
1773149844221844500,2.288844482421875,-24.581098556518555,13.227943420410156,-18.936866760253906
1773149844231880400,2.29888037109375,-24.46693229675293,13.23162841796875,-18.91954803466797
1773149844241916400,2.30891650390625,-24.60723876953125,13.345252990722656,-19.045318603515625
1773149844251952400,2.318952392578125,-24.47870635986328,13.445114135742188,-19.172523498535156
1773149844261988400,2.32898828125,-24.017032623291016,13.45953369140625,-19.08086395263672
1773149844272025300,2.339025390625,-24.187332153320312,13.550224304199219,-19.427352905273438
1773149844282061300,2.349061279296875,-24.30605697631836,13.673614501953125,-19.51929473876953
1773149844292097300,2.35909716796875,-24.294240951538086,13.898635864257812,-19.621246337890625
1773149844302133200,2.36913330078125,-24.344430923461914,13.883460998535156,-19.620201110839844
1773149844312169500,2.37916943359375,-24.04865837097168,13.978927612304688,-19.44786834716797
1773149844322205400,2.389205322265625,-23.913860321044922,14.085693359375,-19.668014526367188
1773149844332241400,2.399241455078125,-23.61944007873535,14.299995422363281,-19.617034912109375
1773149844342278400,2.4092783203125,-23.4136905670166,14.253387451171875,-19.566146850585938
1773149844352314400,2.419314453125,-23.544275283813477,14.363265991210938,-19.591156005859375
1773149844362350300,2.429350341796875,-23.45543670654297,14.455909729003906,-19.45789337158203
1773149844372386600,2.439386474609375,-23.514314651489258,14.493988037109375,-19.363937377929688
1773149844382422500,2.449422607421875,-23.474515914916992,14.556350708007812,-19.486160278320312
1773149844392458500,2.45945849609375,-23.38416862487793,14.90411376953125,-19.534530639648438
1773149844402495500,2.46949560546875,-23.17485809326172,14.936470031738281,-19.403640747070312
1773149844412531500,2.479531494140625,-23.27726936340332,15.065025329589844,-19.360214233398438
1773149844422567400,2.4895673828125,-22.871196746826172,15.112693786621094,-19.55389404296875
1773149844432603400,2.499603271484375,-22.83270263671875,15.239982604980469,-19.520729064941406
1773149844442639400,2.509639404296875,-22.714561462402344,15.491386413574219,-19.5323486328125
1773149844452675300,2.51967529296875,-22.316726684570312,15.607330322265625,-19.370887756347656
1773149844462712600,2.529712646484375,-22.41291046142578,15.6793212890625,-19.576026916503906
1773149844472748500,2.53974853515625,-22.252737045288086,15.881492614746094,-19.69189453125
1773149844482784500,2.549784423828125,-21.948463439941406,16.124862670898438,-19.729583740234375
1773149844492820500,2.559820556640625,-21.937335968017578,16.149703979492188,-19.754066467285156
1773149844502856400,2.5698564453125,-21.53234100341797,16.220611572265625,-19.645706176757812
1773149844512892400,2.579892333984375,-21.594406127929688,16.275497436523438,-19.726318359375
1773149844522928400,2.589928466796875,-21.585359573364258,16.383438110351562,-19.78943634033203
1773149844532965400,2.59996533203125,-21.686725616455078,16.369491577148438,-19.925697326660156
1773149844543001300,2.61000146484375,-21.484146118164062,16.55169677734375,-19.923133850097656
1773149844553037300,2.620037353515625,-21.35576629638672,16.500717163085938,-19.987762451171875
1773149844563073300,2.6300732421875,-21.582489013671875,16.6458740234375,-20.085403442382812
1773149844573109500,2.640109619140625,-21.493362426757812,16.585296630859375,-20.11651611328125
1773149844583145500,2.6501455078125,-21.608779907226562,16.645767211914062,-20.186294555664062
1773149844593182200,2.66018212890625,-21.489635467529297,16.696685791015625,-20.11980438232422
1773149844603218400,2.670218505859375,-21.443574905395508,16.70928955078125,-20.024085998535156
1773149844613254700,2.680254638671875,-21.504356384277344,16.777008056640625,-20.003463745117188
1773149844623290600,2.69029052734375,-21.42687225341797,16.806869506835938,-19.842758178710938
1773149844633326600,2.70032666015625,-21.531925201416016,16.838821411132812,-19.869407653808594
1773149844643362600,2.710362548828125,-21.245817184448242,17.049575805664062,-19.67194366455078
1773149844653398500,2.7203984375,-21.348342895507812,17.022018432617188,-19.73619842529297
1773149844663435500,2.730435546875,-21.132427215576172,17.173492431640625,-19.783653259277344
1773149844673471500,2.740471435546875,-21.386043548583984,17.31396484375,-19.68199920654297
1773149844683507500,2.750507568359375,-21.293819427490234,17.222122192382812,-19.619171142578125
1773149844693543400,2.76054345703125,-21.045114517211914,17.358840942382812,-19.509246826171875
1773149844703579400,2.770579345703125,-21.051429748535156,17.3138427734375,-19.610374450683594
1773149844713615400,2.780615478515625,-21.26169204711914,17.282379150390625,-19.637344360351562
1773149844723652400,2.79065234375,-21.10101890563965,17.255630493164062,-19.66352081298828
1773149844733688300,2.800688232421875,-21.083454132080078,17.422271728515625,-19.769752502441406
1773149844743724300,2.810724365234375,-20.904869079589844,17.46783447265625,-19.825057983398438
1773149844753760300,2.82076025390625,-20.659496307373047,17.625228881835938,-19.895851135253906
1773149844763796200,2.830796142578125,-20.45659637451172,17.716201782226562,-19.99298858642578
1773149844773832400,2.84083251953125,-20.26922035217285,17.676406860351562,-20.02686309814453
1773149844783869400,2.850869384765625,-19.93901824951172,17.843643188476562,-20.031539916992188
1773149844793905400,2.860905517578125,-20.032041549682617,17.818405151367188,-20.236129760742188
1773149844803941400,2.87094140625,-19.716955184936523,17.814468383789062,-20.31298828125
1773149844813977600,2.8809775390625,-19.745773315429688,17.948837280273438,-20.30310821533203
1773149844824013600,2.891013671875,-19.483333587646484,18.076095581054688,-20.506011962890625
1773149844834049500,2.901049560546875,-19.03704833984375,18.073699951171875,-20.344451904296875
1773149844844086500,2.91108642578125,-18.90074348449707,18.09075927734375,-20.540451049804688
1773149844854122500,2.92112255859375,-18.732364654541016,18.096710205078125,-20.644149780273438
1773149844864158500,2.931158447265625,-18.52593231201172,18.090240478515625,-20.670120239257812
1773149844874194400,2.9411943359375,-18.276443481445312,18.296722412109375,-20.666885375976562
1773149844884230400,2.95123046875,-18.000730514526367,18.207763671875,-20.471817016601562
1773149844894266400,2.961266357421875,-17.91612434387207,18.10302734375,-20.65930938720703
1773149844904302300,2.97130224609375,-17.648771286010742,18.143173217773438,-20.765518188476562
1773149844914339600,2.981339599609375,-17.55541229248047,18.162628173828125,-20.896041870117188
1773149844924375600,2.99137548828125,-17.519603729248047,18.101287841796875,-20.874038696289062
1773149844934411500,3.00141162109375,-17.317543029785156,18.140609741210938,-20.879737854003906
1773149844944447500,3.011447509765625,-17.30826187133789,18.34466552734375,-20.94207000732422
1773149844954483500,3.0214833984375,-17.10762596130371,18.294158935546875,-21.12384033203125
1773149844964519400,3.03151953125,-17.09002685546875,18.161178588867188,-21.139854431152344
1773149844974556400,3.041556396484375,-16.877845764160156,18.143936157226562,-21.28778076171875
1773149844984592400,3.05159228515625,-16.599626541137695,18.073867797851562,-21.23577880859375
1773149844994628400,3.06162841796875,-16.525060653686523,18.1917724609375,-21.30718994140625
1773149845004664300,3.071664306640625,-16.45658302307129,18.319793701171875,-21.380271911621094
1773149845014700300,3.0817001953125,-16.52246856689453,18.439712524414062,-21.315818786621094
1773149845024736500,3.091736572265625,-16.434438705444336,18.720184326171875,-21.2786865234375
1773149845034773200,3.101773193359375,-16.614267349243164,18.7554931640625,-21.17188262939453
1773149845044809200,3.111809326171875,-16.729164123535156,18.74871826171875,-21.058998107910156
1773149845054845400,3.121845458984375,-16.854488372802734,18.868408203125,-20.96776580810547
1773149845064881400,3.13188134765625,-16.74180793762207,18.786880493164062,-20.9674072265625
1773149845074917400,3.14191748046875,-16.884490966796875,18.862655639648438,-20.784561157226562
1773149845084953600,3.15195361328125,-17.10699462890625,18.896896362304688,-20.845359802246094
1773149845094990600,3.161990478515625,-17.132278442382812,18.939453125,-20.81781005859375
1773149845105026600,3.172026611328125,-16.97917366027832,18.878448486328125,-20.96904754638672
1773149845115062500,3.1820625,-17.263656616210938,19.012893676757812,-21.079925537109375
1773149845125098500,3.192098388671875,-17.18291473388672,19.000991821289062,-21.075469970703125
1773149845135134500,3.202134521484375,-16.977310180664062,18.747833251953125,-21.19446563720703
1773149845145170400,3.21217041015625,-16.918399810791016,18.684295654296875,-21.455963134765625
1773149845155207400,3.22220751953125,-16.73345947265625,18.704818725585938,-21.46295166015625
1773149845165243400,3.232243408203125,-16.562419891357422,18.65277099609375,-21.474273681640625
1773149845175279400,3.242279296875,-16.431018829345703,18.714920043945312,-21.629051208496094
1773149845185315300,3.2523154296875,-16.424884796142578,18.659011840820312,-21.778671264648438
1773149845195351300,3.262351318359375,-15.999881744384766,18.614303588867188,-21.900741577148438
1773149845205386500,3.272386474609375,-15.985101699829102,18.55889892578125,-21.926315307617188
1773149845215423200,3.28242333984375,-15.886930465698242,18.500076293945312,-21.869773864746094
1773149845225459500,3.29245947265625,-15.792478561401367,18.686721801757812,-22.071495056152344
1773149845235495400,3.302495361328125,-15.662233352661133,18.606430053710938,-22.030006408691406
1773149845245531400,3.312531494140625,-15.708453178405762,18.682220458984375,-22.007057189941406
1773149845255567600,3.322567626953125,-15.568860054016113,18.767227172851562,-21.862380981445312
1773149845265603600,3.332603515625,-15.385191917419434,18.69757080078125,-21.77245330810547
1773149845275640600,3.342640625,-15.394037246704102,18.935012817382812,-21.933731079101562
1773149845285676500,3.352676513671875,-15.576057434082031,18.890151977539062,-22.009628295898438
1773149845295712500,3.36271240234375,-15.614391326904297,18.885726928710938,-21.997634887695312
1773149845305748500,3.37274853515625,-15.4637451171875,18.920150756835938,-22.017807006835938
1773149845315784400,3.382784423828125,-15.242874145507812,18.942764282226562,-21.924346923828125
1773149845325820400,3.3928203125,-15.436057090759277,18.630096435546875,-21.947525024414062
1773149845335857400,3.402857421875,-15.442703247070312,18.605453491210938,-21.98589324951172
1773149845345893400,3.412893310546875,-15.136555671691895,18.692581176757812,-22.010757446289062
1773149845355929300,3.422929443359375,-15.325401306152344,18.915283203125,-22.068206787109375
1773149845365965300,3.43296533203125,-15.339883804321289,18.600372314453125,-22.18321990966797
1773149845376001300,3.443001220703125,-15.386971473693848,18.662368774414062,-22.205154418945312
1773149845386037200,3.453037353515625,-15.316701889038086,18.7879638671875,-22.132461547851562
1773149845396074500,3.463074462890625,-15.423938751220703,18.806808471679688,-22.20733642578125
1773149845406110500,3.4731103515625,-15.308807373046875,18.770126342773438,-22.134918212890625
1773149845416146400,3.483146484375,-15.357593536376953,18.796524047851562,-22.15301513671875
1773149845426182400,3.493182373046875,-15.34819507598877,18.90386962890625,-22.159812927246094
1773149845436218600,3.503218505859375,-15.50892162322998,18.865158081054688,-22.15258026123047
1773149845446254600,3.513254638671875,-15.604562759399414,18.813369750976562,-21.999595642089844
1773149845456291300,3.523291259765625,-15.771452903747559,19.093841552734375,-21.83617401123047
1773149845466327600,3.53332763671875,-15.920841217041016,18.983047485351562,-21.89379119873047
1773149845476363500,3.543363525390625,-16.043243408203125,19.026016235351562,-21.94793701171875
1773149845486399500,3.5533994140625,-15.936695098876953,19.068984985351562,-21.90357208251953
1773149845496435500,3.563435546875,-15.978809356689453,19.015182495117188,-21.986427307128906
1773149845506471400,3.573471435546875,-15.617959022521973,18.86151123046875,-21.962059020996094
1773149845516508400,3.58350830078125,-15.766925811767578,18.701324462890625,-22.120223999023438
1773149845526544400,3.59354443359375,-15.727923393249512,18.432754516601562,-22.179641723632812
1773149845536580400,3.603580322265625,-15.419285774230957,18.243148803710938,-22.469093322753906
1773149845546616300,3.6136162109375,-15.305791854858398,17.946136474609375,-22.740692138671875
1773149845556652500,3.623652587890625,-14.743769645690918,17.59503173828125,-22.95734405517578
1773149845566688500,3.6336884765625,-14.567078590393066,17.528289794921875,-23.28417205810547
1773149845576725500,3.6437255859375,-14.02450180053711,17.332901000976562,-23.684539794921875
1773149845586761500,3.653761474609375,-12.86406135559082,17.316482543945312,-24.096435546875
1773149845596797400,3.66379736328125,-11.633371353149414,16.952346801757812,-24.70294952392578
1773149845606833400,3.67383349609375,-10.737186431884766,16.56964111328125,-25.29326629638672
1773149845616869400,3.683869384765625,-9.908204078674316,16.260223388671875,-25.65534210205078
1773149845626906400,3.69390625,-9.45490837097168,15.857917785644531,-26.036972045898438
1773149845636942300,3.7039423828125,-9.202622413635254,15.648689270019531,-26.19458770751953
1773149845646978300,3.713978271484375,-9.27569580078125,15.31854248046875,-26.1185302734375
1773149845657014300,3.72401416015625,-9.61599349975586,14.934944152832031,-25.985572814941406
1773149845667050200,3.73405029296875,-10.690067291259766,14.479042053222656,-25.909996032714844
1773149845677086500,3.74408642578125,-11.554264068603516,14.556221008300781,-25.680068969726562
1773149845687123500,3.75412353515625,-12.16169548034668,14.777687072753906,-25.414939880371094
1773149845697159400,3.764159423828125,-12.338505744934082,14.948715209960938,-25.09227752685547
1773149845707195600,3.774195556640625,-12.629022598266602,15.065765380859375,-25.200111389160156
1773149845717231600,3.784231689453125,-12.713748931884766,15.183563232421875,-25.193923950195312
1773149845727267600,3.794267578125,-12.922670364379883,15.183418273925781,-25.11174774169922
1773149845737303600,3.804303466796875,-13.305212020874023,15.10382080078125,-25.024192810058594
1773149845747340500,3.814340576171875,-13.099956512451172,15.211647033691406,-24.853294372558594
1773149845757376500,3.82437646484375,-13.201316833496094,15.33935546875,-24.864578247070312
1773149845767412500,3.83441259765625,-13.206324577331543,15.227310180664062,-24.95989990234375
1773149845777448400,3.844448486328125,-13.153802871704102,15.313186645507812,-24.830772399902344
1773149845787484400,3.854484375,-12.968379974365234,15.451560974121094,-24.935997009277344
1773149845797520400,3.864520263671875,-12.727752685546875,15.501983642578125,-25.058448791503906
1773149845807557400,3.874557373046875,-12.418231964111328,15.42626953125,-25.111114501953125
1773149845817593300,3.88459326171875,-12.079901695251465,15.491249084472656,-25.311927795410156
1773149845827629300,3.89462939453125,-12.16726016998291,15.593124389648438,-25.25432586669922
1773149845837665300,3.904665283203125,-11.893941879272461,15.604682922363281,-25.177276611328125
1773149845847701500,3.914701416015625,-11.651092529296875,15.560432434082031,-25.395462036132812
1773149845857738500,3.924738525390625,-11.63528823852539,15.540245056152344,-25.396507263183594
1773149845867774500,3.9347744140625,-11.736959457397461,15.395462036132812,-25.421463012695312
1773149845877810400,3.944810546875,-11.737197875976562,15.363235473632812,-25.508987426757812
1773149845887846400,3.954846435546875,-11.680580139160156,15.462287902832031,-25.659149169921875
1773149845897882400,3.96488232421875,-11.5283203125,15.200263977050781,-25.599777221679688
1773149845907919400,3.97491943359375,-11.667905807495117,15.234031677246094,-25.6658935546875
1773149845917955300,3.984955322265625,-11.661643981933594,15.18341064453125,-25.61853790283203
1773149845927990500,3.994990478515625,-11.661643981933594,15.18341064453125,-25.61853790283203
1773149845938027300,4.00502734375,-12.077016830444336,15.120765686035156,-25.56122589111328
1773149845948063500,4.0150634765625,-12.365863800048828,15.226951599121094,-25.43006134033203
1773149845958099500,4.025099365234375,-13.028770446777344,15.334968566894531,-25.258087158203125
1773149845968135400,4.035135498046875,-13.594423294067383,15.457038879394531,-25.12854766845703
1773149845978171400,4.04517138671875,-14.110107421875,15.634628295898438,-24.741592407226562
1773149845988207400,4.055207275390625,-14.155017852783203,15.624435424804688,-24.357940673828125
1773149845998244600,4.06524462890625,-14.879064559936523,15.766815185546875,-24.174400329589844
1773149846008280600,4.075280517578125,-15.073368072509766,15.967079162597656,-23.8564453125
1773149846018316500,4.085316650390625,-15.249410629272461,16.2242431640625,-23.673362731933594
1773149846028352500,4.0953525390625,-15.462882041931152,16.582290649414062,-23.608070373535156
1773149846038388500,4.105388427734375,-15.80557632446289,16.991775512695312,-23.25902557373047
1773149846048425500,4.115425537109375,-16.13808822631836,17.086029052734375,-22.95580291748047
1773149846058461400,4.12546142578125,-16.630502700805664,17.206298828125,-22.643829345703125
1773149846068497400,4.135497314453125,-16.8934326171875,17.298675537109375,-22.485679626464844
1773149846078533400,4.145533447265625,-16.924348831176758,17.501007080078125,-22.447410583496094
1773149846088569300,4.1555693359375,-16.941707611083984,17.354507446289062,-22.163894653320312
1773149846098605300,4.165605224609375,-17.11441421508789,17.411849975585938,-22.216796875
1773149846108642300,4.175642333984375,-17.20177459716797,17.292007446289062,-22.319847106933594
1773149846118678300,4.18567822265625,-17.330406188964844,17.043777465820312,-22.319610595703125
1773149846128714200,4.19571435546875,-17.449180603027344,17.040863037109375,-22.382957458496094
1773149846138750200,4.205750244140625,-17.199844360351562,17.049789428710938,-22.453140258789062
1773149846148786400,4.215786376953125,-17.104965209960938,17.010879516601562,-22.58959197998047
1773149846158823400,4.225823486328125,-17.213539123535156,16.949844360351562,-22.63532257080078
1773149846168859400,4.235859375,-17.42111587524414,16.759552001953125,-22.768218994140625
1773149846178895400,4.245895263671875,-17.324508666992188,16.589874267578125,-22.675392150878906
1773149846188931600,4.255931640625,-17.24364471435547,16.523178100585938,-22.732704162597656
1773149846198967600,4.265967529296875,-17.302719116210938,16.529876708984375,-22.736793518066406
1773149846209003800,4.276003662109375,-17.256383895874023,16.536758422851562,-22.766250610351562
1773149846219040500,4.28604052734375,-17.388946533203125,16.35809326171875,-22.71996307373047
1773149846229076700,4.29607666015625,-17.58957290649414,16.376129150390625,-22.47650146484375
1773149846239112700,4.30611279296875,-17.604103088378906,16.288375854492188,-22.37866973876953
1773149846249149400,4.3161494140625,-17.84047508239746,16.318023681640625,-22.2366943359375
1773149846259185700,4.326185546875,-18.29179573059082,16.375839233398438,-22.038558959960938
1773149846269222400,4.336222412109375,-18.443649291992188,16.417938232421875,-21.77619171142578
1773149846279258400,4.34625830078125,-18.600284576416016,16.468399047851562,-21.56897735595703
1773149846289294600,4.356294677734375,-19.147022247314453,16.505157470703125,-21.46685028076172
1773149846299330800,4.366330810546875,-19.48595428466797,16.499191284179688,-21.411239624023438
1773149846309366800,4.37636669921875,-19.708921432495117,16.667510986328125,-21.277664184570312
1773149846319403800,4.38640380859375,-19.922136306762695,16.6822509765625,-21.138023376464844
1773149846329439700,4.396439697265625,-20.166339874267578,16.445816040039062,-20.98638153076172
1773149846339475700,4.406475830078125,-20.59383201599121,16.375869750976562,-20.938255310058594
1773149846349511700,4.41651171875,-20.800939559936523,16.148834228515625,-20.865623474121094
1773149846359547600,4.426547607421875,-20.955955505371094,15.894699096679688,-20.88813018798828
1773149846369584600,4.436584716796875,-20.80122947692871,15.824073791503906,-20.805007934570312
1773149846379620600,4.44662060546875,-20.927295684814453,15.856369018554688,-20.889869689941406
1773149846389656600,4.456656494140625,-21.014209747314453,15.752761840820312,-20.936767578125
1773149846399692500,4.466692626953125,-20.992137908935547,15.790184020996094,-20.889144897460938
1773149846409728500,4.476728515625,-21.16433334350586,15.614860534667969,-20.87670135498047
1773149846419764500,4.486764404296875,-21.27106475830078,15.622062683105469,-20.66443634033203
1773149846429801700,4.4968017578125,-21.423133850097656,15.581024169921875,-20.510147094726562
1773149846439837700,4.506837646484375,-21.610645294189453,15.439399719238281,-20.35125732421875
1773149846449873700,4.516873779296875,-21.945232391357422,15.625350952148438,-20.147903442382812
1773149846459909600,4.52690966796875,-22.10549545288086,15.515953063964844,-19.96045684814453
1773149846469945600,4.536945556640625,-22.05474090576172,15.641777038574219,-19.647369384765625
1773149846479982600,4.546982666015625,-22.421810150146484,15.762466430664062,-19.625167846679688
1773149846490018600,4.5570185546875,-22.524044036865234,15.877883911132812,-19.480430603027344
1773149846500054500,4.567054443359375,-22.764244079589844,15.777862548828125,-19.43407440185547
1773149846510090500,4.577090576171875,-22.847869873046875,15.76336669921875,-19.178916931152344
1773149846520126500,4.58712646484375,-23.164840698242188,15.607376098632812,-19.00598907470703
1773149846530163500,4.59716357421875,-23.40692710876465,15.361244201660156,-18.879066467285156
1773149846540199400,4.607199462890625,-23.35222625732422,15.443199157714844,-18.82573699951172
1773149846550235400,4.6172353515625,-23.598291397094727,15.316764831542969,-18.772232055664062
1773149846560271600,4.627271728515625,-23.942949295043945,15.092079162597656,-18.740928649902344
1773149846570307600,4.6373076171875,-24.003381729125977,15.004158020019531,-18.65326690673828
1773149846580344600,4.647344482421875,-24.238203048706055,15.021675109863281,-18.634201049804688
1773149846590380500,4.657380615234375,-24.457815170288086,14.898796081542969,-18.570945739746094
1773149846600416800,4.667416748046875,-24.53925895690918,14.627410888671875,-18.37396240234375
1773149846610452700,4.67745263671875,-24.533958435058594,14.770866394042969,-18.192825317382812
1773149846620488700,4.68748876953125,-24.82709312438965,14.618858337402344,-18.023353576660156
1773149846630524700,4.697524658203125,-25.11141014099121,14.617874145507812,-17.907516479492188
1773149846640561700,4.707561767578125,-25.240774154663086,14.514785766601562,-17.792221069335938
1773149846650597600,4.71759765625,-25.490737915039062,14.339057922363281,-17.511268615722656
1773149846660633600,4.727633544921875,-25.39920997619629,14.630577087402344,-17.33563232421875
1773149846670669600,4.737669677734375,-25.511585235595703,14.620269775390625,-17.42882537841797
1773149846680705500,4.74770556640625,-25.685083389282227,14.638229370117188,-17.29010772705078
1773149846690742500,4.757742431640625,-25.77079200744629,14.56268310546875,-17.168975830078125
1773149846700778500,4.767778564453125,-25.95549774169922,14.525665283203125,-17.12818145751953
1773149846710814700,4.777814697265625,-25.69099998474121,14.557395935058594,-17.036178588867188
1773149846720850700,4.7878505859375,-25.803007125854492,14.484649658203125,-17.003562927246094
1773149846730886700,4.79788671875,-25.91050148010254,14.647689819335938,-17.026031494140625
1773149846740923600,4.807923583984375,-25.889833450317383,14.588401794433594,-17.03276824951172
1773149846750959600,4.817959716796875,-25.87874412536621,14.602401733398438,-16.978561401367188
1773149846760995600,4.82799560546875,-25.91190528869629,14.624290466308594,-17.006179809570312
1773149846771031600,4.838031494140625,-25.986587524414062,14.675621032714844,-17.027420043945312
1773149846781067500,4.848067626953125,-25.837085723876953,14.664634704589844,-17.016525268554688
1773149846791104500,4.8581044921875,-25.734878540039062,14.616378784179688,-17.033554077148438
1773149846801140500,4.868140380859375,-25.59939193725586,14.633567810058594,-17.025238037109375
1773149846811176400,4.878176513671875,-25.594451904296875,14.7655029296875,-17.041793823242188
1773149846821212400,4.88821240234375,-25.373985290527344,14.951591491699219,-17.23369598388672
1773149846831248600,4.89824853515625,-25.23540496826172,14.97552490234375,-17.234054565429688
1773149846841284600,4.90828466796875,-25.198516845703125,14.9293212890625,-17.36638641357422
1773149846851321600,4.918321533203125,-24.882349014282227,14.801864624023438,-17.18206787109375
1773149846861357600,4.928357666015625,-25.13088035583496,14.763923645019531,-17.398895263671875
1773149846871393800,4.938393798828125,-25.22710418701172,14.830268859863281,-17.564186096191406
1773149846881429800,4.9484296875,-25.340965270996094,14.919319152832031,-17.623977661132812
1773149846891465700,4.9584658203125,-25.15078353881836,14.871360778808594,-17.64966583251953
1773149846901502700,4.968502685546875,-25.075054168701172,15.030738830566406,-17.692222595214844
1773149846911538700,4.97853857421875,-24.97919464111328,15.002166748046875,-17.775352478027344
1773149846921574700,4.98857470703125,-24.911054611206055,15.083251953125,-17.988525390625
1773149846931610600,4.998610595703125,-24.732177734375,15.129501342773438,-18.038909912109375
1773149846941646600,5.008646484375,-24.612497329711914,15.076866149902344,-18.047325134277344
1773149846951683600,5.01868359375,-24.521902084350586,15.043960571289062,-18.098297119140625
1773149846961719600,5.028719482421875,-24.82033348083496,15.141921997070312,-18.08692169189453
1773149846971755500,5.038755615234375,-24.845678329467773,15.150581359863281,-18.145233154296875
1773149846981791500,5.04879150390625,-24.51323127746582,15.314674377441406,-18.086944580078125
1773149846991827500,5.058827392578125,-24.265331268310547,15.383766174316406,-18.1436767578125
1773149847001864700,5.06886474609375,-24.307111740112305,15.272628784179688,-18.227737426757812
1773149847011900700,5.078900634765625,-24.375274658203125,15.149711608886719,-18.228759765625
1773149847021936600,5.0889365234375,-24.471370697021484,15.252655029296875,-18.15032958984375
1773149847031972600,5.09897265625,-24.68015480041504,15.413276672363281,-18.234176635742188
1773149847042008600,5.109008544921875,-24.422555923461914,15.540908813476562,-18.152992248535156
1773149847052045600,5.119045654296875,-24.170818328857422,15.514259338378906,-18.26580047607422
1773149847062081500,5.12908154296875,-24.298343658447266,15.59356689453125,-18.302452087402344
1773149847072117500,5.139117431640625,-24.137157440185547,15.541839599609375,-18.32862091064453
1773149847082153500,5.149153564453125,-24.173873901367188,15.432426452636719,-18.36315155029297
1773149847092189400,5.159189453125,-24.206188201904297,15.4593505859375,-18.361289978027344
1773149847102226400,5.169226318359375,-24.102916717529297,15.250595092773438,-18.264434814453125
1773149847112262400,5.179262451171875,-24.296070098876953,15.300994873046875,-18.41480255126953
1773149847122298600,5.189298583984375,-24.16839599609375,15.399078369140625,-18.414718627929688
1773149847132334600,5.19933447265625,-24.148738861083984,15.292121887207031,-18.480758666992188
1773149847142370800,5.209370849609375,-23.9464054107666,15.3411865234375,-18.37622833251953
1773149847152407600,5.219407470703125,-23.913522720336914,15.397651672363281,-18.33941650390625
1773149847162443500,5.229443603515625,-24.09242057800293,15.397491455078125,-18.561141967773438
1773149847172479700,5.239479736328125,-23.924013137817383,15.1773681640625,-18.614349365234375
1773149847182515700,5.249515625,-23.696819305419922,15.44512939453125,-18.599884033203125
1773149847192551700,5.2595517578125,-23.62375259399414,15.36712646484375,-18.66315460205078
1773149847202587600,5.269587646484375,-23.486724853515625,15.362815856933594,-18.8179931640625
1773149847212624600,5.279624755859375,-23.430051803588867,15.441459655761719,-18.99559783935547
1773149847222660600,5.28966064453125,-23.200307846069336,15.334236145019531,-19.139053344726562
1773149847232696600,5.299696533203125,-22.983142852783203,15.397933959960938,-18.969451904296875
1773149847242732500,5.309732666015625,-22.893917083740234,15.518577575683594,-19.25115203857422
1773149847252768500,5.3197685546875,-22.86431884765625,15.570457458496094,-19.305564880371094
1773149847262805500,5.329805419921875,-22.592754364013672,15.511940002441406,-19.271827697753906
1773149847272841500,5.339841552734375,-22.68260955810547,15.633460998535156,-19.343292236328125
1773149847282877400,5.34987744140625,-22.560577392578125,15.667320251464844,-19.176284790039062
1773149847292913400,5.359913330078125,-22.65618133544922,15.644607543945312,-19.2801513671875
1773149847302949400,5.369949462890625,-22.835887908935547,15.618095397949219,-19.281463623046875
1773149847312986400,5.379986328125,-22.889446258544922,15.631179809570312,-19.204299926757812
1773149847323022300,5.390022216796875,-22.993873596191406,15.730010986328125,-19.23907470703125
1773149847333058300,5.400058349609375,-22.760562896728516,15.823158264160156,-19.018341064453125
1773149847343094300,5.41009423828125,-22.8419189453125,15.845802307128906,-18.98979949951172
1773149847353130200,5.420130126953125,-22.877552032470703,15.906501770019531,-18.972579956054688
1773149847363167500,5.43016748046875,-23.007671356201172,15.849700927734375,-19.145721435546875
1773149847373203500,5.440203369140625,-23.002077102661133,15.62786865234375,-19.036376953125
1773149847383239400,5.450239501953125,-23.090890884399414,15.637832641601562,-19.10833740234375
1773149847393275400,5.460275390625,-22.915401458740234,15.617538452148438,-18.945274353027344
1773149847403311600,5.4703115234375,-23.020681381225586,15.669631958007812,-18.931732177734375
1773149847413348400,5.480348388671875,-22.917556762695312,15.760002136230469,-18.95793914794922
1773149847423384300,5.49038427734375,-22.69952392578125,15.739738464355469,-18.856796264648438
1773149847433420500,5.500420654296875,-22.806655883789062,15.705558776855469,-18.915313720703125
1773149847443456500,5.51045654296875,-22.984195709228516,15.640213012695312,-18.794235229492188
1773149847453492500,5.520492431640625,-23.114871978759766,15.677642822265625,-18.738845825195312
1773149847463529500,5.530529541015625,-23.074012756347656,15.64691162109375,-18.877464294433594
1773149847473565400,5.5405654296875,-22.841062545776367,15.503150939941406,-18.569549560546875
1773149847483601400,5.550601318359375,-22.980072021484375,15.511978149414062,-18.68585205078125
1773149847493637400,5.560637451171875,-23.267797470092773,15.477310180664062,-18.64380645751953
1773149847503673300,5.57067333984375,-23.457090377807617,15.392753601074219,-18.706695556640625
1773149847513710600,5.580710693359375,-23.513147354125977,15.315956115722656,-18.64836883544922
1773149847523746600,5.59074658203125,-23.539167404174805,15.4189453125,-18.576622009277344
1773149847533782500,5.600782470703125,-23.484121322631836,15.410789489746094,-18.55451202392578
1773149847543818500,5.610818603515625,-23.484840393066406,15.431892395019531,-18.601425170898438
1773149847553854500,5.6208544921875,-23.421995162963867,15.343238830566406,-18.55803680419922
1773149847563891500,5.630891357421875,-23.706764221191406,15.341850280761719,-18.510658264160156
1773149847573927400,5.640927490234375,-23.781721115112305,15.306015014648438,-18.45000457763672
1773149847583963400,5.65096337890625,-23.769018173217773,15.293556213378906,-18.47900390625
1773149847593999400,5.660999267578125,-23.91172218322754,15.24737548828125,-18.5992431640625
1773149847604035300,5.671035400390625,-23.965206146240234,15.173233032226562,-18.473739624023438
1773149847614072300,5.681072265625,-23.48324966430664,15.215011596679688,-18.315414428710938
1773149847624108300,5.6911083984375,-23.670862197875977,15.232261657714844,-18.413230895996094
1773149847634144500,5.70114453125,-23.533294677734375,15.054969787597656,-18.36107635498047
1773149847644180500,5.711180419921875,-23.731651306152344,15.124092102050781,-18.424163818359375
1773149847654216400,5.721216552734375,-23.693660736083984,15.163665771484375,-18.482444763183594
1773149847664253400,5.73125341796875,-23.747722625732422,15.147621154785156,-18.317642211914062
1773149847674289400,5.741289306640625,-23.875892639160156,15.10968017578125,-18.383949279785156
1773149847684325400,5.751325439453125,-24.05261993408203,15.054313659667969,-18.32294464111328
1773149847694361300,5.761361328125,-24.204011917114258,15.0208740234375,-18.16167449951172
1773149847704397300,5.771397216796875,-24.33705711364746,14.849777221679688,-18.123313903808594
1773149847714434300,5.781434326171875,-24.258995056152344,14.927085876464844,-18.01287078857422
1773149847724470300,5.79147021484375,-24.609373092651367,14.889144897460938,-18.066299438476562
1773149847734506500,5.801506591796875,-24.57112693786621,14.84454345703125,-17.849685668945312
1773149847744542500,5.81154248046875,-24.579879760742188,14.975303649902344,-17.65887451171875
1773149847754578400,5.821578369140625,-24.726179122924805,14.864448547363281,-17.42254638671875
1773149847764615400,5.831615478515625,-24.922060012817383,14.854774475097656,-17.26976776123047
1773149847774651600,5.841651611328125,-25.07081413269043,14.786415100097656,-16.964515686035156
1773149847784687600,5.8516875,-25.140134811401367,15.061408996582031,-16.834274291992188
1773149847794723600,5.8617236328125,-25.368566513061523,14.94512939453125,-16.541168212890625
1773149847804759600,5.871759521484375,-25.6068058013916,15.036903381347656,-16.16899871826172
1773149847814796500,5.881796630859375,-25.88589096069336,14.904708862304688,-15.922409057617188
1773149847824832500,5.89183251953125,-26.22077751159668,14.934173583984375,-15.711128234863281
1773149847834868500,5.901868408203125,-26.536645889282227,14.73687744140625,-15.418487548828125
1773149847844904400,5.911904541015625,-26.6303768157959,14.65850830078125,-15.075286865234375
1773149847854940400,5.9219404296875,-26.963258743286133,14.430191040039062,-14.689582824707031
1773149847864977400,5.931977294921875,-27.540443420410156,14.307952880859375,-14.677566528320312
1773149847875013400,5.942013427734375,-27.81523895263672,14.111312866210938,-14.544937133789062
1773149847885049300,5.95204931640625,-27.99219512939453,14.162750244140625,-14.418357849121094
1773149847895085300,5.962085205078125,-28.092390060424805,13.894432067871094,-14.093231201171875
1773149847905121300,5.972121337890625,-28.215373992919922,13.763206481933594,-13.861297607421875
1773149847915158500,5.982158447265625,-28.631683349609375,13.762138366699219,-13.720657348632812
1773149847925194500,5.992194580078125,-28.99045181274414,13.752822875976562,-13.616355895996094
1773149847935230500,6.00223046875,-29.075082778930664,13.730751037597656,-13.40240478515625
1773149847945266400,6.012266357421875,-29.22733497619629,13.551689147949219,-13.180862426757812
1773149847955302400,6.022302490234375,-29.39542579650879,13.452499389648438,-13.076866149902344
1773149847965339400,6.03233935546875,-29.485641479492188,13.194229125976562,-12.945976257324219
1773149847975375400,6.042375244140625,-29.453670501708984,13.45001220703125,-12.959396362304688
1773149847985411300,6.052411376953125,-29.35589027404785,13.294731140136719,-12.888877868652344
1773149847995447300,6.062447265625,-29.137773513793945,13.293556213378906,-12.756507873535156
1773149848005483300,6.072483154296875,-29.228487014770508,13.212081909179688,-12.98529052734375
1773149848015520300,6.082520263671875,-29.309539794921875,13.334930419921875,-13.060089111328125
1773149848025556200,6.09255615234375,-29.514358520507812,13.236602783203125,-13.070404052734375
1773149848035592200,6.10259228515625,-29.675710678100586,13.2337646484375,-12.910301208496094
1773149848045628700,6.112628662109375,-29.611839294433594,13.076118469238281,-12.580963134765625
1773149848055664600,6.12266455078125,-29.6935977935791,13.030410766601562,-12.632965087890625
1773149848065701400,6.132701416015625,-29.853830337524414,13.155624389648438,-12.526565551757812
1773149848075737600,6.142737548828125,-29.875690460205078,13.091560363769531,-12.502723693847656
1773149848085773600,6.152773681640625,-29.875690460205078,13.091560363769531,-12.502723693847656
1773149848095809500,6.1628095703125,-30.021047592163086,13.132316589355469,-12.500480651855469
1773149848105845500,6.172845458984375,-29.705028533935547,13.251609802246094,-12.44036865234375
1773149848115882500,6.182882568359375,-29.835250854492188,13.410652160644531,-12.502296447753906
1773149848125918500,6.19291845703125,-29.92435073852539,13.629348754882812,-12.611679077148438
1773149848135954400,6.202954345703125,-29.83397674560547,13.636497497558594,-12.504241943359375
1773149848145990400,6.212990478515625,-29.51260757446289,13.726898193359375,-12.531402587890625
1773149848156026400,6.2230263671875,-29.372970581054688,13.990608215332031,-12.670616149902344
1773149848166063600,6.233063720703125,-29.45893669128418,14.141677856445312,-12.767906188964844
1773149848176099600,6.243099609375,-29.27141571044922,14.582611083984375,-12.901832580566406
1773149848186135600,6.253135498046875,-29.01377296447754,14.611961364746094,-12.929847717285156
1773149848196171500,6.263171630859375,-28.847026824951172,14.953269958496094,-13.062408447265625
1773149848206209500,6.27320947265625,-28.5743408203125,15.168655395507812,-13.342239379882812
1773149848216245500,6.28324560546875,-28.336833953857422,15.559440612792969,-13.614540100097656
1773149848226281500,6.293281494140625,-27.793102264404297,15.760322570800781,-13.947929382324219
1773149848236317400,6.3033173828125,-27.317825317382812,16.0908203125,-14.326339721679688
1773149848246353400,6.313353515625,-26.826969146728516,16.443817138671875,-14.522575378417969
1773149848256390400,6.323390380859375,-26.3966064453125,16.832717895507812,-15.250129699707031
1773149848266426400,6.33342626953125,-26.003568649291992,17.036239624023438,-15.731712341308594
1773149848276462300,6.34346240234375,-25.469497680664062,17.402969360351562,-16.259262084960938
1773149848286498300,6.353498291015625,-25.185739517211914,17.6153564453125,-16.58184814453125
1773149848296534300,6.3635341796875,-25.135107040405273,17.6793212890625,-16.59832763671875
1773149848306571300,6.3735712890625,-25.122093200683594,17.767547607421875,-16.712326049804688
1773149848316607200,6.383607177734375,-25.211830139160156,17.905548095703125,-16.66992950439453
1773149848326643200,6.393643310546875,-25.18999481201172,17.96221923828125,-16.482498168945312
1773149848336679200,6.40367919921875,-25.367595672607422,17.8017578125,-16.4014892578125
1773149848346715100,6.413715087890625,-25.214689254760742,18.096771240234375,-16.45116424560547
1773149848356752400,6.42375244140625,-24.91716766357422,18.164031982421875,-16.284751892089844
1773149848366788400,6.433788330078125,-24.688791275024414,18.23577880859375,-16.193519592285156
1773149848376824300,6.44382421875,-24.875112533569336,18.140594482421875,-16.461624145507812
1773149848386860300,6.4538603515625,-24.924856185913086,18.120529174804688,-16.39862823486328
1773149848396896300,6.463896240234375,-25.027727127075195,18.239166259765625,-16.52843475341797
1773149848406933200,6.473933349609375,-25.09169578552246,18.170639038085938,-16.881568908691406
1773149848416969200,6.48396923828125,-25.164918899536133,18.158843994140625,-17.11835479736328
1773149848427005200,6.494005126953125,-25.00923728942871,18.16064453125,-17.302207946777344
1773149848437041400,6.50404150390625,-24.504011154174805,18.274154663085938,-17.391387939453125
1773149848447077400,6.514077392578125,-24.49126625061035,18.2369384765625,-17.56939697265625
1773149848457114000,6.524114013671875,-24.336702346801758,18.372390747070312,-17.774444580078125
1773149848467150300,6.534150390625,-24.371002197265625,18.3504638671875,-17.662521362304688
1773149848477186300,6.544186279296875,-24.434568405151367,18.461639404296875,-17.584091186523438
1773149848487222300,6.55422216796875,-24.241283416748047,18.54119873046875,-17.356163024902344
1773149848497258500,6.564258544921875,-24.469379425048828,18.659866333007812,-17.249122619628906
1773149848507295500,6.57429541015625,-24.535825729370117,18.828445434570312,-17.06493377685547
1773149848517331500,6.58433154296875,-24.754825592041016,18.908554077148438,-16.87061309814453
1773149848527367400,6.594367431640625,-24.812124252319336,18.795089721679688,-16.633750915527344
1773149848537403400,6.6044033203125,-24.70819091796875,18.640899658203125,-16.534759521484375
1773149848547440400,6.6144404296875,-24.79995346069336,18.643569946289062,-16.437278747558594
1773149848557476400,6.624476318359375,-25.00735092163086,18.459426879882812,-16.48731231689453
1773149848567512300,6.63451220703125,-25.10863494873047,18.541656494140625,-16.5462646484375
1773149848577548300,6.64454833984375,-24.970840454101562,18.402725219726562,-16.51543426513672
1773149848587584300,6.654584228515625,-25.296117782592773,18.307510375976562,-16.596839904785156
1773149848597621200,6.664621337890625,-25.436397552490234,18.217544555664062,-16.588943481445312
1773149848607657200,6.6746572265625,-25.619977951049805,18.086929321289062,-16.5870361328125
1773149848617693400,6.684693359375,-25.76654052734375,18.115325927734375,-16.59667205810547
1773149848627729400,6.6947294921875,-25.58574104309082,18.182388305664062,-16.432838439941406
1773149848637765400,6.704765380859375,-25.52229881286621,17.962478637695312,-16.532760620117188
1773149848647802400,6.71480224609375,-25.61630630493164,18.035675048828125,-16.771682739257812
1773149848657838300,6.72483837890625,-25.713163375854492,17.867950439453125,-16.873703002929688
1773149848667874300,6.734874267578125,-25.84075355529785,17.728363037109375,-17.093658447265625
1773149848677910300,6.74491015625,-25.426204681396484,17.685211181640625,-17.145126342773438
1773149848687946200,6.7549462890625,-25.2896728515625,17.63519287109375,-17.484817504882812
1773149848697983200,6.764983154296875,-25.267745971679688,17.609359741210938,-17.751441955566406
1773149848708019200,6.775019287109375,-25.05235481262207,17.593505859375,-17.90074920654297
1773149848718055200,6.78505517578125,-24.928874969482422,17.832427978515625,-17.9949951171875
1773149848728091100,6.795091064453125,-24.807462692260742,17.869491577148438,-18.0736083984375
1773149848738127000,6.805127197265625,-24.64900016784668,18.049041748046875,-18.062835693359375
1773149848748164400,6.815164306640625,-24.648775100708008,17.971923828125,-17.902481079101562
1773149848758200300,6.825200439453125,-24.684614181518555,18.151718139648438,-17.81761932373047
1773149848768236300,6.835236328125,-24.62746238708496,18.166656494140625,-17.60528564453125
1773149848778272500,6.8452724609375,-24.746631622314453,18.381393432617188,-17.511550903320312
1773149848788308500,6.85530859375,-24.65897560119629,18.387939453125,-17.23987579345703
1773149848798345200,6.86534521484375,-24.46030044555664,18.541717529296875,-16.97502899169922
1773149848808381400,6.87538134765625,-24.498943328857422,18.73614501953125,-16.717506408691406
1773149848818417400,6.88541748046875,-24.590194702148438,18.787399291992188,-16.25029754638672
1773149848828453400,6.895453369140625,-24.803049087524414,18.75421142578125,-16.076927185058594
1773149848838489300,6.9054892578125,-24.99925994873047,18.823989868164062,-15.635536193847656
1773149848848526300,6.9155263671875,-25.003164291381836,18.744033813476562,-15.014396667480469
1773149848858562300,6.925562255859375,-25.286487579345703,18.824371337890625,-14.434730529785156
1773149848868598300,6.935598388671875,-25.479001998901367,18.803512573242188,-13.65948486328125
1773149848878634200,6.94563427734375,-25.76873779296875,18.605697631835938,-13.204704284667969
1773149848888671500,6.95567138671875,-25.899744033813477,18.402435302734375,-12.959197998046875
1773149848898707500,6.96570751953125,-25.66826629638672,18.29449462890625,-12.670425415039062
1773149848908743400,6.975743408203125,-25.67009735107422,17.993377685546875,-12.487998962402344
1773149848918779400,6.985779296875,-25.52069854736328,18.096267700195312,-12.449394226074219
1773149848928815400,6.9958154296875,-25.73849105834961,17.829605102539062,-12.475181579589844
1773149848938852400,7.005852294921875,-25.86832046508789,17.65423583984375,-12.685211181640625
1773149848948888300,7.015888427734375,-25.886932373046875,17.460800170898438,-12.789024353027344
1773149848958924300,7.02592431640625,-25.861413955688477,17.718902587890625,-13.027214050292969
1773149848968960300,7.035960205078125,-25.57124137878418,17.675201416015625,-13.471153259277344
1773149848978996200,7.045996337890625,-25.267147064208984,17.575607299804688,-13.93316650390625
1773149848989033200,7.056033203125,-25.148157119750977,17.689224243164062,-14.42767333984375
1773149848999069200,7.066069091796875,-25.071500778198242,17.634628295898438,-14.620620727539062
1773149849009105200,7.076105224609375,-24.849626541137695,17.738082885742188,-15.103523254394531
1773149849019141000,7.08614111328125,-24.87022590637207,17.630050659179688,-15.644142150878906
1773149849029177300,7.09617724609375,-25.104429244995117,17.466567993164062,-16.01190948486328
1773149849039214300,7.10621435546875,-24.98019790649414,17.377914428710938,-16.55121612548828
1773149849049250300,7.116250244140625,-24.79850196838379,17.288299560546875,-17.02503204345703
1773149849059286300,7.126286376953125,-24.49432373046875,17.37567138671875,-17.390777587890625
1773149849069322200,7.136322265625,-24.634521484375,17.370590209960938,-17.970802307128906
1773149849079358500,7.1463583984375,-24.596328735351562,17.38494873046875,-18.205596923828125
1773149849089395200,7.156395263671875,-24.562753677368164,17.50299072265625,-18.542221069335938
1773149849099431200,7.16643115234375,-24.66567611694336,17.688568115234375,-18.76526641845703
1773149849109467400,7.17646728515625,-24.45125961303711,17.80255126953125,-18.81334686279297
1773149849119503400,7.18650341796875,-24.629446029663086,17.703048706054688,-18.92333221435547
1773149849129540000,7.1965400390625,-24.742971420288086,17.51708984375,-19.017539978027344
1773149849139576300,7.206576416015625,-24.905366897583008,17.65643310546875,-19.125038146972656
1773149849149612500,7.216612548828125,-24.793621063232422,17.656448364257812,-19.06780242919922
1773149849159648500,7.2266484375,-25.137042999267578,17.542709350585938,-18.95746612548828
1773149849169684500,7.2366845703125,-25.364620208740234,17.413116455078125,-18.523727416992188
1773149849179721500,7.246721435546875,-25.776813507080078,17.38458251953125,-18.040542602539062
1773149849189757400,7.25675732421875,-26.279823303222656,17.354278564453125,-17.61115264892578
1773149849199793400,7.26679345703125,-26.518335342407227,17.363037109375,-16.998069763183594
1773149849209828900,7.276828857421875,-26.89911460876465,17.272186279296875,-16.717803955078125
1773149849219864800,7.28686474609375,-27.001689910888672,17.398712158203125,-16.528663635253906
1773149849229901800,7.29690185546875,-27.209699630737305,17.302566528320312,-16.39349365234375
1773149849239937800,7.306937744140625,-27.124984741210938,17.439544677734375,-16.52252197265625
1773149849249973800,7.316973876953125,-26.670095443725586,17.351837158203125,-16.517837524414062
1773149849260009700,7.327009765625,-26.4843807220459,17.329483032226562,-16.804641723632812
1773149849270045700,7.337045654296875,-26.34081268310547,17.216156005859375,-17.05158233642578
1773149849280083000,7.3470830078125,-26.07391357421875,16.99273681640625,-17.35980224609375
1773149849290119000,7.357118896484375,-25.77382469177246,16.805206298828125,-17.544158935546875
1773149849300155000,7.36715478515625,-25.221364974975586,16.765579223632812,-17.554855346679688
1773149849310190800,7.37719091796875,-25.028411865234375,16.549057006835938,-17.724609375
1773149849320226800,7.387226806640625,-24.44135284423828,16.44317626953125,-17.57684326171875
1773149849330263800,7.397263916015625,-24.394094467163086,16.354293823242188,-17.51604461669922
1773149849340299800,7.4072998046875,-24.090192794799805,16.514068603515625,-17.368423461914062
1773149849350335700,7.417335693359375,-23.728408813476562,16.473068237304688,-17.14153289794922
1773149849360371700,7.427371826171875,-23.377561569213867,16.620254516601562,-16.73651123046875
1773149849370408000,7.437407958984375,-23.260589599609375,16.825653076171875,-16.19879913330078
1773149849380444700,7.447444580078125,-23.276517868041992,16.899810791015625,-15.233757019042969
1773149849390480600,7.457480712890625,-23.76612663269043,17.154937744140625,-14.104095458984375
1773149849400516900,7.467516845703125,-24.018596649169922,17.267562866210938,-13.331748962402344
1773149849410552800,7.477552734375,-24.037464141845703,18.037094116210938,-12.921150207519531
1773149849420588800,7.4875888671875,-24.42272186279297,18.582305908203125,-12.156524658203125
1773149849430625800,7.497625732421875,-24.863420486450195,18.7928466796875,-11.408355712890625
1773149849440662000,7.507662109375,-25.416337966918945,18.791168212890625,-10.983528137207031
1773149849450698000,7.517697998046875,-25.978546142578125,18.437225341796875,-11.334526062011719
1773149849460734000,7.52773388671875,-26.263160705566406,18.111679077148438,-12.0201416015625
1773149849470771000,7.53777099609375,-26.498016357421875,17.79132080078125,-13.004043579101562
1773149849480807000,7.547806884765625,-26.2935848236084,17.437576293945312,-14.029533386230469
1773149849490843000,7.5578427734375,-26.065624237060547,17.206741333007812,-15.074256896972656
1773149849500878800,7.56787890625,-25.913330078125,16.843856811523438,-16.195083618164062
1773149849510914800,7.577914794921875,-25.757856369018555,16.641021728515625,-17.193893432617188
1773149849520951800,7.587951904296875,-25.460105895996094,16.420425415039062,-17.98601531982422
1773149849530987800,7.59798779296875,-25.426252365112305,16.1317138671875,-18.471054077148438
1773149849541023700,7.608023681640625,-25.499296188354492,16.159317016601562,-18.794921875
1773149849551060000,7.61806005859375,-25.558738708496094,15.973876953125,-18.842613220214844
1773149849561096000,7.628095947265625,-25.880037307739258,15.779975891113281,-18.680221557617188
1773149849571133000,7.6381328125,-26.20427703857422,15.806396484375,-18.216453552246094
1773149849581169000,7.6481689453125,-26.489673614501953,15.998199462890625,-17.67181396484375
1773149849591204900,7.658204833984375,-26.922393798828125,15.841499328613281,-16.782676696777344
1773149849601240800,7.66824072265625,-27.498815536499023,15.865005493164062,-16.1754150390625
1773149849611276800,7.67827685546875,-28.072832107543945,15.777450561523438,-15.486885070800781
1773149849621313800,7.688313720703125,-28.44458770751953,15.984527587890625,-14.700096130371094
1773149849631349800,7.698349853515625,-28.617919921875,15.988044738769531,-13.992279052734375
1773149849641385700,7.7083857421875,-28.65562629699707,15.902915954589844,-13.701522827148438
1773149849651421700,7.718421630859375,-28.506929397583008,15.861961364746094,-13.658767700195312
1773149849661457700,7.728457763671875,-28.516067504882812,15.6866455078125,-13.803665161132812
1773149849671495000,7.738494873046875,-28.525272369384766,15.507087707519531,-13.952926635742188
1773149849681531000,7.74853076171875,-28.38197898864746,15.389541625976562,-14.0859375
1773149849691566800,7.75856689453125,-28.30571937561035,15.163932800292969,-14.223258972167969
1773149849701602800,7.768602783203125,-28.16315269470215,15.005477905273438,-14.334609985351562
1773149849711639000,7.77863916015625,-27.932353973388672,15.23358154296875,-14.33697509765625
1773149849721675800,7.78867578125,-27.45522117614746,15.39324951171875,-14.575469970703125
1773149849731711700,7.798711669921875,-26.630615234375,15.819343566894531,-14.805953979492188
1773149849741748000,7.808748046875,-26.055389404296875,16.214859008789062,-15.174774169921875
1773149849751784000,7.818783935546875,-25.23531723022461,16.68804931640625,-15.4483642578125
1773149849761820700,7.828820556640625,-24.54381561279297,17.024017333984375,-15.672615051269531
1773149849771857000,7.83885693359375,-23.547454833984375,17.570587158203125,-15.706634521484375
1773149849781892900,7.848892822265625,-22.94954490661621,17.977996826171875,-16.061614990234375
1773149849791928800,7.8589287109375,-22.09347915649414,18.228057861328125,-16.09754180908203
1773149849801964800,7.86896484375,-22.05335235595703,18.205596923828125,-16.007469177246094
1773149849812002000,7.879001953125,-22.027467727661133,18.60565185546875,-15.697601318359375
1773149849822038000,7.8890380859375,-22.202987670898438,19.123565673828125,-14.52496337890625
1773149849832074000,7.899073974609375,-22.729557037353516,19.8201904296875,-13.327796936035156
1773149849842110000,7.90910986328125,-23.405475616455078,20.20574951171875,-11.935050964355469
1773149849852146000,7.91914599609375,-23.887264251708984,20.668426513671875,-10.769821166992188
1773149849862183000,7.929182861328125,-24.159427642822266,20.817520141601562,-9.897315979003906
1773149849872219000,7.939218994140625,-24.43560218811035,20.926773071289062,-9.351837158203125
1773149849882254800,7.9492548828125,-24.546472549438477,20.8336181640625,-9.213485717773438
1773149849892290800,7.959290771484375,-24.62571907043457,20.980987548828125,-9.4251708984375
1773149849902326800,7.969326904296875,-24.63109016418457,20.892776489257812,-9.624504089355469
1773149849912363800,7.97936376953125,-24.686019897460938,20.909439086914062,-10.018203735351562
1773149849922399700,7.989399658203125,-24.600833892822266,20.591384887695312,-10.465049743652344
1773149849932434700,7.9994345703125,-24.600833892822266,20.591384887695312,-10.465049743652344
1773149849942471000,8.009470947265624,-24.39363670349121,20.297836303710938,-10.793899536132812
1773149849952507000,8.0195068359375,-24.60707664489746,20.02392578125,-10.957511901855469
1773149849962543900,8.0295439453125,-25.08484649658203,19.670242309570312,-10.916450500488281
1773149849972579800,8.039579833984375,-25.174497604370117,19.740951538085938,-10.824081420898438
1773149849982616000,8.049615966796875,-25.570730209350586,19.713241577148438,-10.400749206542969
1773149849992652000,8.059652099609375,-25.69615364074707,19.793991088867188,-9.856231689453125
1773149850002688000,8.06968798828125,-26.112817764282227,20.074386596679688,-9.333488464355469
1773149850012725000,8.07972509765625,-26.15450096130371,20.344284057617188,-8.769638061523438
1773149850022761000,8.089760986328125,-26.01401138305664,20.559661865234375,-8.055755615234375
1773149850032797000,8.099796875,-26.397544860839844,20.810867309570312,-7.492271423339844
1773149850042833000,8.1098330078125,-26.416568756103516,21.190475463867188,-6.780082702636719
1773149850052868900,8.119868896484375,-26.29827308654785,21.561080932617188,-5.784919738769531
1773149850062905900,8.12990576171875,-26.509483337402344,21.727157592773438,-4.836479187011719
1773149850072941800,8.13994189453125,-26.10138702392578,21.895217895507812,-3.9272994995117188
1773149850082977800,8.149977783203125,-26.032669067382812,22.058822631835938,-3.635162353515625
1773149850093013800,8.160013671875,-26.272321701049805,22.141098022460938,-3.7260055541992188
1773149850103049700,8.1700498046875,-26.351696014404297,22.110702514648438,-3.8807144165039062
1773149850113087000,8.1800869140625,-26.23002052307129,22.027069091796875,-4.08319091796875
1773149850123123000,8.190123046875,-26.327835083007812,21.759231567382812,-4.255836486816406
1773149850133159000,8.200158935546876,-26.267799377441406,21.744491577148438,-4.3486480712890625
1773149850143195000,8.21019482421875,-26.264467239379883,21.572372436523438,-4.4812469482421875
1773149850153230800,8.22023095703125,-26.22502899169922,21.59674072265625,-4.572418212890625
1773149850163267800,8.230267822265626,-26.21849822998047,21.654327392578125,-4.2458953857421875
1773149850173303800,8.2403037109375,-26.169471740722656,21.638504028320312,-4.1432342529296875
1773149850183339800,8.25033984375,-25.98623275756836,21.518173217773438,-4.063926696777344
1773149850193375700,8.260375732421876,-26.006290435791016,21.60809326171875,-3.9260406494140625
1773149850203411700,8.27041162109375,-26.130895614624023,21.7552490234375,-3.987701416015625
1773149850213453300,8.280453369140625,-25.846817016601562,21.855850219726562,-3.6184768676757812
1773149850223489300,8.2904892578125,-25.510530471801758,21.832473754882812,-3.7905044555664062
1773149850233525200,8.300525146484375,-25.573026657104492,21.609100341796875,-3.748199462890625
1773149850243561200,8.310561279296875,-25.382415771484375,21.631362915039062,-3.830078125
1773149850253597200,8.32059716796875,-25.243141174316406,21.626617431640625,-4.002128601074219
1773149850263634200,8.33063427734375,-25.050537109375,21.5029296875,-4.0538177490234375
1773149850273670100,8.340670166015625,-24.830942153930664,21.550201416015625,-4.397789001464844
1773149850283706000,8.3507060546875,-24.74984359741211,21.533935546875,-4.609992980957031
1773149850293742000,8.3607421875,-24.71869468688965,21.457794189453125,-4.7136383056640625
1773149850303779000,8.370779052734376,-24.519302368164062,21.419342041015625,-4.875053405761719
1773149850313815000,8.38081494140625,-24.490955352783203,21.430526733398438,-4.941627502441406
1773149850323851000,8.39085107421875,-24.13166618347168,21.365280151367188,-4.942832946777344
1773149850333887200,8.40088720703125,-24.064712524414062,21.234878540039062,-4.98712158203125
1773149850343923500,8.41092333984375,-23.92942237854004,21.3236083984375,-4.923675537109375
1773149850353960200,8.420960205078124,-23.946109771728516,21.06939697265625,-4.905403137207031
1773149850363996200,8.43099609375,-23.91777229309082,21.075393676757812,-4.989418029785156
1773149850374032400,8.441032470703124,-23.697708129882812,20.84027099609375,-5.001991271972656
1773149850384068400,8.451068359375,-23.647977828979492,20.90966796875,-5.13922119140625
1773149850394104300,8.461104248046874,-23.4384822845459,20.92633056640625,-5.164031982421875
1773149850404141300,8.471141357421875,-23.20037078857422,20.884231567382812,-5.084922790527344
1773149850414177300,8.48117724609375,-23.13340950012207,20.805511474609375,-5.1495208740234375
1773149850424213200,8.491213134765625,-22.856908798217773,20.777435302734375,-5.218048095703125
1773149850434249200,8.501249267578125,-22.849288940429688,20.638229370117188,-5.1391143798828125
1773149850444285200,8.51128515625,-22.989267349243164,20.546417236328125,-5.075569152832031
1773149850454322400,8.521322509765625,-22.574695587158203,20.474517822265625,-5.039520263671875
1773149850464358400,8.5313583984375,-22.658628463745117,20.34881591796875,-5.1488800048828125
1773149850474394400,8.541394287109375,-22.815778732299805,20.14483642578125,-5.206581115722656
1773149850484430300,8.551430419921875,-22.910642623901367,19.70001220703125,-5.070442199707031
1773149850494466300,8.56146630859375,-22.84583854675293,19.744903564453125,-5.0810394287109375
1773149850504503300,8.57150341796875,-22.93699073791504,19.509078979492188,-5.0164642333984375
1773149850514539300,8.581539306640625,-23.07963752746582,19.364349365234375,-5.116127014160156
1773149850524575200,8.5915751953125,-23.217453002929688,19.219741821289062,-5.170722961425781
1773149850534611200,8.601611083984375,-23.345380783081055,19.056869506835938,-5.133720397949219
1773149850544647200,8.611647216796875,-23.360034942626953,18.851654052734375,-5.140327453613281
1773149850554684200,8.62168408203125,-23.315345764160156,18.644577026367188,-5.137367248535156
1773149850564720000,8.63172021484375,-23.440113067626953,18.40350341796875,-5.19427490234375
1773149850574756000,8.641756103515625,-23.713504791259766,18.234878540039062,-5.276611328125
1773149850584792000,8.6517919921875,-23.789535522460938,17.993408203125,-5.231788635253906
1773149850594828000,8.661828125,-23.744924545288086,17.707962036132812,-5.079833984375
1773149850604865300,8.671865234375,-24.05657386779785,17.536346435546875,-5.1490325927734375
1773149850614901200,8.6819013671875,-24.493330001831055,17.337677001953125,-5.114234924316406
1773149850624937200,8.691937255859376,-24.74715232849121,17.084991455078125,-5.184318542480469
1773149850634973200,8.70197314453125,-24.85041618347168,16.995758056640625,-5.341087341308594
1773149850645010200,8.71201025390625,-24.880210876464844,16.850906372070312,-5.310493469238281
1773149850655046100,8.722046142578124,-24.719327926635742,16.620498657226562,-5.527259826660156
1773149850665082000,8.73208203125,-24.80855941772461,16.502914428710938,-5.575340270996094
1773149850675118000,8.7421181640625,-24.963090896606445,16.53900146484375,-5.521018981933594
1773149850685154300,8.752154296875,-25.070724487304688,16.3887939453125,-5.38067626953125
1773149850695191000,8.76219091796875,-25.263132095336914,16.305740356445312,-5.059234619140625
1773149850705227300,8.772227294921874,-25.372222900390625,16.267059326171875,-4.750801086425781
1773149850715263200,8.78226318359375,-25.57719612121582,16.247146606445312,-4.447540283203125
1773149850725299200,8.79229931640625,-25.742630004882812,16.145431518554688,-4.1193695068359375
1773149850735335200,8.802335205078125,-26.021406173706055,16.106948852539062,-3.7565078735351562
1773149850745372400,8.812372314453125,-26.221555709838867,16.107574462890625,-3.5903701782226562
1773149850755408400,8.822408447265625,-26.240596771240234,16.000282287597656,-3.3240127563476562
1773149850765444400,8.8324443359375,-26.426305770874023,15.932945251464844,-3.192962646484375
1773149850775480300,8.842480224609375,-26.439228057861328,15.953147888183594,-3.11676025390625
1773149850785516300,8.852516357421875,-26.188575744628906,16.05175018310547,-3.0469436645507812
1773149850795553300,8.86255322265625,-26.31348419189453,16.169723510742188,-3.1609039306640625
1773149850805589200,8.87258935546875,-26.203699111938477,16.209136962890625,-3.3598251342773438
1773149850815625200,8.882625244140625,-26.10828971862793,16.402542114257812,-3.4324569702148438
1773149850825661200,8.8926611328125,-25.79134750366211,16.547470092773438,-3.397857666015625
1773149850835697200,8.902697265625,-25.574081420898438,16.88018798828125,-3.3731460571289062
1773149850845734100,8.912734130859375,-25.48958396911621,17.15985107421875,-3.5679397583007812
1773149850855770000,8.92277001953125,-25.057788848876953,17.366485595703125,-3.9708328247070312
1773149850865806300,8.932806396484375,-24.86773109436035,17.452117919921875,-4.4180908203125
1773149850875842300,8.94284228515625,-24.686782836914062,17.635025024414062,-4.726318359375
1773149850885878300,8.952878173828125,-24.55006217956543,17.659835815429688,-4.4434661865234375
1773149850895915300,8.962915283203126,-24.36474609375,17.923385620117188,-4.021202087402344
1773149850905951200,8.972951171875,-24.282943725585938,18.203125,-3.5671234130859375
1773149850915987200,8.9829873046875,-24.111478805541992,18.428985595703125,-3.2136077880859375
1773149850926023200,8.993023193359376,-24.06537437438965,18.919021606445312,-3.1571044921875
1773149850936059100,9.00305908203125,-23.820613861083984,19.332504272460938,-3.2741928100585938
1773149850946096000,9.01309619140625,-23.809234619140625,19.369720458984375,-3.2399444580078125
1773149850956132000,9.023132080078126,-23.77528953552246,19.473800659179688,-3.129364013671875
1773149850966168000,9.03316796875,-23.571989059448242,19.476806640625,-3.0090179443359375
1773149850976204000,9.0432041015625,-23.70657730102539,19.706649780273438,-2.8285980224609375
1773149850986241300,9.0532412109375,-23.685203552246094,19.770599365234375,-2.826690673828125
1773149850996277200,9.06327734375,-23.58078956604004,19.8917236328125,-2.7702865600585938
1773149851006313200,9.073313232421874,-23.519546508789062,20.120407104492188,-2.7126541137695312
1773149851016349400,9.083349365234374,-23.25492286682129,20.104217529296875,-2.661102294921875
1773149851026385400,9.093385498046874,-23.200918197631836,20.19903564453125,-2.4170989990234375
1773149851036422100,9.103422119140625,-23.204463958740234,20.136489868164062,-2.3243026733398438
1773149851046458400,9.113458251953125,-23.014781951904297,20.15966796875,-2.0337982177734375
1773149851056494300,9.123494384765625,-22.77949333190918,20.164688110351562,-1.3857269287109375
1773149851066530300,9.1335302734375,-22.69110107421875,20.238555908203125,-0.7466201782226562
1773149851076566300,9.143566162109375,-22.579269409179688,20.447128295898438,0.090850830078125
1773149851086603300,9.153603271484375,-22.592010498046875,20.452743530273438,0.8458786010742188
1773149851096639200,9.16363916015625,-22.46463394165039,20.442764282226562,1.447265625
1773149851106675200,9.17367529296875,-22.332942962646484,20.559005737304688,1.9401321411132812
1773149851116711200,9.183711181640625,-21.967819213867188,20.425048828125,2.3398513793945312
1773149851126747100,9.1937470703125,-21.637481689453125,20.2650146484375,2.4844284057617188
1773149851136784400,9.203784423828125,-21.368885040283203,20.022994995117188,2.5676803588867188
1773149851146820400,9.2138203125,-21.311859130859375,20.1082763671875,2.4345779418945312
1773149851156856300,9.223856201171875,-21.37494659423828,19.879135131835938,2.345367431640625
1773149851166892300,9.233892333984375,-21.32803726196289,19.826461791992188,2.3932647705078125
1773149851176928300,9.24392822265625,-21.36805534362793,19.815536499023438,2.1901321411132812
1773149851186965200,9.25396533203125,-21.24190330505371,19.710891723632812,2.2677383422851562
1773149851197001200,9.264001220703125,-21.29329490661621,19.5684814453125,2.2116928100585938
1773149851207037200,9.274037109375,-21.44314956665039,19.566070556640625,2.1058807373046875
1773149851217068500,9.284068603515625,-21.249958038330078,19.546615600585938,2.2102813720703125
1773149851227104500,9.2941044921875,-21.325660705566406,19.303131103515625,1.9849777221679688
1773149851237141200,9.304141357421875,-21.188663482666016,19.296249389648438,1.8790512084960938
1773149851247177500,9.314177490234375,-21.280860900878906,19.23492431640625,1.7829513549804688
1773149851257213400,9.32421337890625,-21.32941246032715,19.308013916015625,1.7733306884765625
1773149851267249400,9.33424951171875,-21.176422119140625,19.27301025390625,1.8650665283203125
1773149851277285400,9.344285400390625,-21.25594711303711,19.197250366210938,1.7488555908203125
1773149851287322600,9.354322509765625,-21.253223419189453,18.891281127929688,1.4178085327148438
1773149851297358600,9.364358642578125,-21.32627296447754,18.70111083984375,1.1765289306640625
1773149851307394600,9.37439453125,-21.499984741210938,18.602020263671875,1.02288818359375
1773149851317430500,9.384430419921875,-21.503154754638672,18.436782836914062,0.691314697265625
1773149851327466500,9.394466552734375,-21.557477951049805,18.210067749023438,0.567596435546875
1773149851337503500,9.40450341796875,-21.764995574951172,18.037277221679688,0.3338775634765625
1773149851347539500,9.41453955078125,-21.71780014038086,17.819412231445312,0.215667724609375
1773149851357575400,9.424575439453125,-21.80825424194336,17.68060302734375,0.11685943603515625
1773149851367611400,9.434611328125,-21.936304092407227,17.856048583984375,-0.07794952392578125
1773149851377647400,9.4446474609375,-22.25470733642578,17.981216430664062,-0.148223876953125
1773149851387684400,9.454684326171876,-22.25470733642578,17.981216430664062,-0.148223876953125
1773149851397720300,9.46472021484375,-22.32387924194336,17.83734130859375,-0.010040283203125
1773149851407756300,9.47475634765625,-22.50812530517578,17.814544677734375,-0.00081634521484375
1773149851417792300,9.484792236328126,-22.6202392578125,17.760711669921875,0.13463592529296875
1773149851427828500,9.494828369140626,-22.60890007019043,17.646713256835938,0.13958740234375
1773149851437865500,9.504865478515624,-22.59009552001953,18.023956298828125,0.0851898193359375
1773149851447901400,9.5149013671875,-22.698074340820312,17.81610107421875,0.21349334716796875
1773149851457937400,9.5249375,-22.95899200439453,17.7652587890625,0.2548828125
1773149851467973400,9.534973388671874,-22.867828369140625,17.749755859375,0.42871856689453125
1773149851478009300,9.54500927734375,-23.08988380432129,17.725265502929688,0.536102294921875
1773149851488046300,9.55504638671875,-23.008621215820312,17.619598388671875,0.5949630737304688
1773149851498082300,9.565082275390624,-23.14926528930664,17.668975830078125,0.70318603515625
1773149851508118300,9.5751181640625,-23.248197555541992,17.7030029296875,0.7111129760742188
1773149851518154500,9.585154541015624,-23.341970443725586,17.694305419921875,0.7318878173828125
1773149851528191200,9.595191162109375,-23.39765167236328,17.994720458984375,0.6787567138671875
1773149851538227200,9.605227294921875,-23.508140563964844,17.971588134765625,0.7363739013671875
1773149851548263400,9.615263427734375,-23.497220993041992,17.986648559570312,0.9242706298828125
1773149851558299600,9.625299560546875,-23.60291290283203,17.865234375,0.860565185546875
1773149851568335600,9.635335693359375,-23.72034454345703,17.84130859375,0.6958999633789062
1773149851578372400,9.645372314453125,-23.808914184570312,17.732177734375,0.64312744140625
1773149851588408600,9.65540869140625,-23.791048049926758,17.792678833007812,0.59320068359375
1773149851598444500,9.665444580078125,-23.790481567382812,17.785812377929688,0.48935699462890625
1773149851608480500,9.67548046875,-23.805374145507812,17.713958740234375,0.4106903076171875
1773149851618516500,9.6855166015625,-24.261720657348633,17.643951416015625,0.18628692626953125
1773149851628553500,9.695553466796875,-24.271360397338867,17.654052734375,-0.0395050048828125
1773149851638589400,9.70558935546875,-24.201404571533203,17.470779418945312,-0.3049163818359375
1773149851648625400,9.71562548828125,-24.551021575927734,17.42718505859375,-0.48911285400390625
1773149851658661400,9.725661376953125,-24.554367065429688,17.33685302734375,-0.6025238037109375
1773149851668697300,9.735697265625,-24.778846740722656,17.326507568359375,-0.8150177001953125
1773149851678734600,9.745734619140626,-24.919464111328125,17.254806518554688,-0.9595794677734375
1773149851688770600,9.7557705078125,-24.97952651977539,17.027252197265625,-1.2467117309570312
1773149851698806500,9.765806640625,-25.199932098388672,17.14227294921875,-1.6870651245117188
1773149851708842500,9.775842529296876,-25.305288314819336,17.010177612304688,-2.0345687866210938
1773149851718878500,9.78587841796875,-25.208145141601562,17.044570922851562,-2.61676025390625
1773149851728915500,9.79591552734375,-25.070344924926758,17.058929443359375,-3.1562271118164062
1773149851738951400,9.805951416015626,-24.90544891357422,16.9954833984375,-3.7741241455078125
1773149851748987400,9.8159873046875,-24.738311767578125,17.00592041015625,-4.552490234375
1773149851759023400,9.8260234375,-24.24391746520996,17.027297973632812,-5.415565490722656
1773149851769059300,9.836059326171876,-23.88226890563965,17.155654907226562,-6.353515625
1773149851779096300,9.846096435546874,-23.431655883789062,17.267410278320312,-7.293449401855469
1773149851789132300,9.85613232421875,-23.003992080688477,17.270828247070312,-8.202201843261719
1773149851799168300,9.866168212890624,-22.273174285888672,17.321517944335938,-8.988861083984375
1773149851809204200,9.876204345703124,-21.94041633605957,17.297103881835938,-9.793357849121094
1773149851819240400,9.886240478515624,-21.684032440185547,17.222518920898438,-10.450469970703125
1773149851829277400,9.89627734375,-21.447391510009766,17.143997192382812,-10.926864624023438
1773149851839313400,9.9063134765625,-21.24959373474121,17.328079223632812,-11.29656982421875
1773149851849349400,9.916349365234375,-21.062198638916016,17.469802856445312,-11.198654174804688
1773149851859385600,9.926385498046875,-21.300582885742188,17.782470703125,-11.183517456054688
1773149851869421600,9.936421630859375,-21.38349151611328,17.9945068359375,-10.89935302734375
1773149851879458300,9.946458251953125,-21.869251251220703,18.057296752929688,-10.684654235839844
1773149851889494500,9.95649462890625,-22.237850189208984,18.116836547851562,-10.444259643554688
1773149851899530500,9.966530517578125,-22.331809997558594,18.10986328125,-10.20458984375
1773149851909566500,9.97656640625,-22.6357421875,18.3250732421875,-10.214752197265625
1773149851919602400,9.9866025390625,-22.70269203186035,18.364486694335938,-10.210334777832031
1773149851929639400,9.996639404296875,-22.73997688293457,18.483154296875,-10.445877075195312
1773149851939675400,10.00667529296875,-22.62820816040039,18.494186401367188,-10.78094482421875
1773149851949711400,10.01671142578125,-22.696182250976562,18.33660888671875,-11.351127624511719
1773149851959747300,10.026747314453125,-22.61174964904785,18.564071655273438,-11.945457458496094
1773149851969783600,10.036783447265625,-21.981412887573242,18.663894653320312,-12.499282836914062
1773149851979820500,10.046820556640625,-21.5076961517334,18.721633911132812,-13.158607482910156
1773149851989856500,10.0568564453125,-20.956546783447266,18.890304565429688,-13.504554748535156
1773149851999892500,10.066892578125,-20.6361083984375,19.380203247070312,-13.826766967773438
1773149852009928400,10.076928466796875,-20.496156692504883,19.916763305664062,-13.678421020507812
1773149852019964400,10.08696435546875,-20.438499450683594,20.12725830078125,-13.131271362304688
1773149852030001400,10.09700146484375,-20.84166717529297,20.596771240234375,-12.498207092285156
1773149852040037400,10.107037353515626,-21.312767028808594,20.937606811523438,-11.160881042480469
1773149852050073300,10.1170732421875,-22.11849594116211,21.007354736328125,-9.651153564453125
1773149852060109300,10.127109375,-22.550785064697266,21.1827392578125,-8.600051879882812
1773149852070145300,10.137145263671876,-22.855449676513672,21.365280151367188,-8.00341796875
1773149852080182500,10.1471826171875,-22.675003051757812,21.416854858398438,-7.93914794921875
1773149852090218500,10.157218505859374,-22.66858673095703,21.445053100585938,-8.030502319335938
1773149852100254500,10.16725439453125,-22.50728988647461,21.107070922851562,-8.168960571289062
1773149852110290400,10.17729052734375,-22.67878532409668,21.107833862304688,-8.524093627929688
1773149852120326400,10.187326416015624,-22.816299438476562,20.929718017578125,-8.7674560546875
1773149852130363400,10.19736328125,-22.717971801757812,20.802001953125,-8.729072570800781
1773149852140399400,10.2073994140625,-22.757545471191406,20.855972290039062,-8.950180053710938
1773149852150435300,10.217435302734375,-22.72905158996582,20.678680419921875,-9.147506713867188
1773149852160471600,10.227471435546875,-22.767379760742188,20.517532348632812,-9.327682495117188
1773149852170507500,10.237507568359375,-22.655044555664062,20.354705810546875,-9.64324951171875
1773149852180544300,10.247544189453125,-22.408193588256836,20.276580810546875,-9.767601013183594
1773149852190580500,10.25758056640625,-22.570228576660156,20.10101318359375,-10.220108032226562
1773149852200616400,10.267616455078125,-22.612918853759766,19.969314575195312,-10.532478332519531
1773149852210652400,10.27765234375,-22.62607192993164,19.85986328125,-10.726310729980469
1773149852220689400,10.287689453125,-22.521976470947266,19.921157836914062,-10.878463745117188
1773149852230726100,10.29772607421875,-22.257701873779297,19.859268188476562,-10.868751525878906
1773149852240762000,10.30776220703125,-22.464990615844727,19.760452270507812,-11.074600219726562
1773149852250798300,10.31779833984375,-22.2999267578125,19.579421997070312,-11.230751037597656
1773149852260834300,10.327834228515625,-22.285125732421875,19.507186889648438,-11.537986755371094
1773149852270870300,10.337870361328125,-22.222023010253906,19.201400756835938,-11.661170959472656
1773149852280907300,10.3479072265625,-22.24020767211914,19.024093627929688,-11.96234130859375
1773149852290943200,10.357943115234375,-22.41788673400879,18.984878540039062,-12.136444091796875
1773149852300979200,10.367979248046876,-22.385778427124023,18.9390869140625,-12.439300537109375
1773149852311015200,10.37801513671875,-22.456939697265625,18.831207275390625,-12.798393249511719
1773149852321051100,10.388051025390626,-22.421039581298828,18.733352661132812,-13.02392578125
1773149852331088100,10.398088134765626,-22.467126846313477,18.61114501953125,-13.424827575683594
1773149852341124400,10.408124267578126,-22.584426879882812,18.504653930664062,-13.73809814453125
1773149852351160300,10.418160400390626,-22.23378562927246,18.193206787109375,-13.986686706542969
1773149852361196300,10.4281962890625,-22.264698028564453,17.8642578125,-14.261436462402344
1773149852371232300,10.438232177734376,-22.13689422607422,17.682037353515625,-14.50311279296875
1773149852381269200,10.448269287109374,-22.086437225341797,17.540084838867188,-14.994384765625
1773149852391305200,10.45830517578125,-22.172985076904297,17.190155029296875,-15.311012268066406
1773149852401341200,10.468341064453124,-21.949813842773438,16.926864624023438,-15.693084716796875
1773149852411377200,10.478377197265624,-21.88016128540039,16.710357666015625,-15.992576599121094
1773149852421413000,10.4884130859375,-21.5455322265625,16.530319213867188,-16.09332275390625
1773149852431450000,10.4984501953125,-21.612953186035156,16.223175048828125,-16.43708038330078
1773149852441486000,10.508486083984375,-21.746726989746094,16.207733154296875,-16.7093505859375
1773149852451522000,10.51852197265625,-22.007299423217773,16.015579223632812,-16.613311767578125
1773149852461558000,10.52855810546875,-22.280176162719727,16.052444458007812,-16.432289123535156
1773149852471594000,10.538593994140625,-22.411535263061523,15.84893798828125,-16.019744873046875
1773149852481631200,10.54863134765625,-22.78347396850586,15.892860412597656,-15.867874145507812
1773149852491667200,10.558667236328125,-23.31035041809082,16.04803466796875,-15.509483337402344
1773149852501703200,10.568703125,-23.340185165405273,16.29803466796875,-14.994354248046875
1773149852511739100,10.5787392578125,-23.712156295776367,16.627960205078125,-14.472175598144531
1773149852521775400,10.588775390625,-23.840848922729492,16.817901611328125,-13.836997985839844
1773149852531812000,10.59881201171875,-24.13487434387207,17.03509521484375,-13.068290710449219
1773149852541848000,10.60884814453125,-24.536212921142578,17.102615356445312,-12.569740295410156
1773149852551884300,10.61888427734375,-24.77848243713379,16.913345336914062,-12.184791564941406
1773149852561920300,10.628920166015625,-25.071922302246094,16.681137084960938,-11.886810302734375
1773149852571956200,10.638956298828125,-25.06017303466797,16.558273315429688,-12.205528259277344
1773149852581993200,10.6489931640625,-25.067779541015625,16.045143127441406,-12.545928955078125
1773149852592029200,10.659029296875,-25.17294692993164,15.664100646972656,-13.0098876953125
1773149852602065200,10.669065185546875,-25.00864028930664,15.44580078125,-13.459571838378906
1773149852612101000,10.67910107421875,-25.107637405395508,15.384552001953125,-13.405990600585938
1773149852622137000,10.68913720703125,-25.493345260620117,15.297462463378906,-13.421798706054688
1773149852632173300,10.69917333984375,-25.95726776123047,15.205116271972656,-13.176834106445312
1773149852642210300,10.709210205078126,-26.259737014770508,14.935211181640625,-12.844581604003906
1773149852652246300,10.719246337890626,-26.654417037963867,14.656013488769531,-12.518409729003906
1773149852662282200,10.7292822265625,-26.79388427734375,14.64227294921875,-12.188613891601562
1773149852672318200,10.739318115234376,-27.141080856323242,14.424530029296875,-12.067008972167969
1773149852682354200,10.749354248046876,-27.48021125793457,14.13433837890625,-11.870429992675781
1773149852692391200,10.75939111328125,-27.92155647277832,13.732704162597656,-11.900825500488281
1773149852702427100,10.76942724609375,-28.28978729248047,13.144371032714844,-11.689506530761719
1773149852712463000,10.779463134765624,-28.759521484375,12.643302917480469,-11.704376220703125
1773149852722499000,10.7894990234375,-29.10345458984375,12.348030090332031,-11.642364501953125
1773149852732535000,10.79953515625,-29.500089645385742,11.849807739257812,-11.378997802734375
1773149852742572000,10.809572021484374,-29.63999366760254,11.605735778808594,-11.228157043457031
1773149852752608300,10.819608154296875,-29.88850212097168,11.493789672851562,-10.65179443359375
1773149852762644200,10.829644287109375,-30.390106201171875,11.409759521484375,-10.246200561523438
1773149852772680200,10.83968017578125,-30.64885139465332,11.381500244140625,-9.575447082519531
1773149852782716200,10.849716064453125,-31.014320373535156,11.457191467285156,-8.853668212890625
1773149852792753200,10.859753173828125,-31.36892318725586,11.66107177734375,-8.169441223144531
1773149852802789000,10.8697890625,-31.278390884399414,11.862998962402344,-7.474884033203125
1773149852812825000,10.8798251953125,-31.56743049621582,12.206298828125,-7.2469482421875
1773149852822861300,10.889861328125,-31.450641632080078,12.382987976074219,-7.29833984375
1773149852832897300,10.899897216796875,-31.175853729248047,12.395210266113281,-7.625
1773149852842934000,10.90993408203125,-30.84994125366211,12.684913635253906,-8.187423706054688
1773149852852970200,10.91997021484375,-30.804580688476562,12.781173706054688,-8.582389831542969
1773149852863006200,10.930006103515625,-30.69129753112793,12.713943481445312,-9.209068298339844
1773149852873042200,10.940042236328125,-30.386789321899414,12.662857055664062,-9.50439453125
1773149852883078100,10.950078125,-30.391708374023438,12.710174560546875,-9.727943420410156
1773149852893115400,10.960115478515625,-30.28142738342285,12.702117919921875,-10.041793823242188
1773149852903151400,10.9701513671875,-29.897605895996094,12.989730834960938,-10.359962463378906
1773149852913187300,10.980187255859375,-29.605993270874023,13.180870056152344,-10.814933776855469
1773149852923223300,10.990223388671875,-29.308366775512695,13.295425415039062,-11.238967895507812
1773149852933259300,11.00025927734375,-28.92845916748047,13.590782165527344,-11.68035888671875
1773149852943296300,11.010296142578126,-28.49205780029297,13.82745361328125,-11.970596313476562
1773149852953332200,11.020332275390626,-28.154970169067383,14.106430053710938,-12.285140991210938
1773149852963368200,11.0303681640625,-27.75071907043457,14.384635925292969,-12.618064880371094
1773149852973404200,11.040404052734376,-27.422313690185547,14.664634704589844,-12.774269104003906
1773149852983440100,11.050440185546876,-27.347074508666992,14.786613464355469,-12.819808959960938
1773149852993477000,11.06047705078125,-27.16929054260254,15.018310546875,-12.620338439941406
1773149853003513000,11.07051318359375,-26.963258743286133,15.190818786621094,-12.647415161132812
1773149853013549000,11.080549072265624,-26.898025512695312,15.441566467285156,-12.697532653808594
1773149853023585000,11.0905849609375,-27.006216049194336,15.718475341796875,-12.505538940429688
1773149853033621000,11.10062109375,-27.135231018066406,15.875160217285156,-12.394607543945312
1773149853043658200,11.110658203125,-27.121387481689453,15.914962768554688,-12.169151306152344
1773149853053694200,11.120694091796874,-27.49196434020996,15.766853332519531,-12.025184631347656
1773149853063730200,11.130730224609374,-27.655057907104492,15.739753723144531,-11.920829772949219
1773149853073766100,11.14076611328125,-27.995914459228516,15.466781616210938,-11.7080078125
1773149853083802000,11.150802001953124,-28.088274002075195,15.41094970703125,-11.796554565429688
1773149853093839000,11.160839111328125,-28.244232177734375,15.460746765136719,-11.697494506835938
1773149853103875000,11.170875,-28.219280242919922,15.462562561035156,-11.532463073730469
1773149853113911000,11.1809111328125,-28.302978515625,15.498939514160156,-11.316802978515625
1773149853123947300,11.190947265625,-28.358882904052734,15.775917053222656,-11.205101013183594
1773149853133983200,11.200983154296875,-28.08010482788086,16.004783630371094,-11.24407958984375
1773149853144020000,11.21102001953125,-28.001317977905273,16.11371612548828,-11.382125854492188
1773149853154056200,11.22105615234375,-28.026826858520508,16.468093872070312,-11.456649780273438
1773149853164092400,11.231092529296875,-27.77401351928711,16.423660278320312,-11.427688598632812
1773149853174128400,11.24112841796875,-27.782806396484375,16.433303833007812,-11.611198425292969
1773149853184164400,11.251164306640625,-27.47104835510254,16.7034912109375,-11.574653625488281
1773149853194201300,11.261201416015625,-27.46031379699707,16.837722778320312,-11.796600341796875
1773149853204237300,11.2712373046875,-27.417579650878906,16.988510131835938,-11.83428955078125
1773149853214273000,11.28127294921875,-27.252002716064453,17.000839233398438,-11.764381408691406
1773149853224309000,11.29130908203125,-27.485822677612305,17.048568725585938,-11.572296142578125
1773149853234345000,11.301344970703125,-27.221189498901367,17.163650512695312,-11.317420959472656
1773149853244382200,11.31138232421875,-27.498754501342773,17.352996826171875,-11.376976013183594
1773149853254418200,11.321418212890626,-27.560604095458984,17.509201049804688,-11.217262268066406
1773149853264454100,11.3314541015625,-27.434049606323242,17.332504272460938,-11.203208923339844
1773149853274490000,11.341489990234376,-27.434049606323242,17.332504272460938,-11.203208923339844
1773149853284526000,11.351526123046876,-27.470829010009766,17.423416137695312,-11.376518249511719
1773149853294563000,11.36156298828125,-27.14952850341797,17.46246337890625,-11.623237609863281
1773149853304599000,11.37159912109375,-27.323429107666016,17.399810791015625,-11.795822143554688
1773149853314635000,11.381635009765626,-27.103504180908203,17.437393188476562,-12.131675720214844
1773149853324671000,11.3916708984375,-27.333843231201172,17.409286499023438,-12.427024841308594
1773149853334707000,11.40170703125,-27.044246673583984,17.314315795898438,-12.601470947265625
1773149853344744000,11.411743896484374,-26.75850486755371,17.237518310546875,-12.90582275390625
1773149853354780000,11.42177978515625,-26.53331756591797,17.379684448242188,-13.265480041503906
1773149853364816000,11.43181591796875,-26.223825454711914,17.435760498046875,-13.529304504394531
1773149853374851800,11.441851806640624,-26.38614273071289,17.383590698242188,-13.8101806640625
1773149853384888000,11.45188818359375,-26.30592155456543,17.303604125976562,-13.744644165039062
1773149853394925000,11.461925048828125,-26.492435455322266,17.117996215820312,-13.681144714355469
1773149853404961000,11.4719609375,-26.626134872436523,17.145095825195312,-13.740684509277344
1773149853414997000,11.4819970703125,-26.78228759765625,17.359542846679688,-13.453338623046875
1773149853425033200,11.492033203125,-27.02007293701172,17.259185791015625,-13.126358032226562
1773149853435069200,11.502069091796875,-27.28612518310547,17.219924926757812,-12.540298461914062
1773149853445106000,11.51210595703125,-27.579872131347656,17.080459594726562,-11.852424621582031
1773149853455142100,11.52214208984375,-27.957103729248047,16.8509521484375,-11.257080078125
1773149853465178000,11.53217822265625,-28.11041259765625,16.96221923828125,-10.887519836425781
1773149853475214000,11.542214111328125,-28.146875381469727,16.868682861328125,-10.510337829589844
1773149853485250000,11.55225,-28.307544708251953,16.9495849609375,-10.099876403808594
1773149853495287000,11.562287109375,-28.745887756347656,16.74444580078125,-9.650657653808594
1773149853505323300,11.5723232421875,-28.566349029541016,16.5062255859375,-9.476097106933594
1773149853515359200,11.582359130859375,-28.92169761657715,16.334152221679688,-9.189926147460938
1773149853525395200,11.592395263671875,-29.229177474975586,16.160232543945312,-8.825111389160156
1773149853535431200,11.60243115234375,-29.29456329345703,16.164016723632812,-8.578262329101562
1773149853545468200,11.61246826171875,-29.5296573638916,16.110504150390625,-8.234321594238281
1773149853555504000,11.622504150390625,-29.540428161621094,16.04479217529297,-7.8754119873046875
1773149853565540000,11.6325400390625,-29.732580184936523,16.063003540039062,-7.4091644287109375
1773149853575576000,11.642576171875,-29.73794937133789,15.943801879882812,-6.830039978027344
1773149853585612000,11.652612060546875,-29.981420516967773,15.837837219238281,-6.659797668457031
1773149853595649000,11.66264892578125,-30.086692810058594,15.795928955078125,-6.4303131103515625
1773149853605685000,11.67268505859375,-30.06602668762207,15.573539733886719,-6.503730773925781
1773149853615721000,11.682720947265626,-30.068614959716797,15.408866882324219,-6.614982604980469
1773149853625757000,11.6927568359375,-30.095407485961914,14.858283996582031,-6.798683166503906
1773149853635794200,11.702794189453124,-30.413604736328125,14.470130920410156,-7.19622802734375
1773149853645830100,11.712830078125,-30.646018981933594,13.91900634765625,-7.6227264404296875
1773149853655866000,11.7228662109375,-30.821447372436523,13.310699462890625,-8.04656982421875
1773149853665902000,11.732902099609374,-30.824447631835938,12.715866088867188,-8.545745849609375
1773149853675938000,11.74293798828125,-30.694353103637695,12.197669982910156,-8.830726623535156
1773149853685975000,11.75297509765625,-30.704614639282227,11.579261779785156,-9.015998840332031
1773149853696011000,11.763010986328124,-31.03778839111328,10.91961669921875,-9.325027465820312
1773149853706047000,11.773046875,-31.474895477294922,10.5496826171875,-9.432899475097656
1773149853716083000,11.7830830078125,-31.781902313232422,10.191558837890625,-9.420845031738281
1773149853726119200,11.793119140625,-31.811796188354492,9.917861938476562,-9.349090576171875
1773149853736156000,11.803156005859375,-31.846437454223633,9.740829467773438,-9.268692016601562
1773149853746192000,11.81319189453125,-31.743118286132812,9.89935302734375,-9.271614074707031
1773149853756228000,11.82322802734375,-31.49622344970703,10.080894470214844,-9.243827819824219
1773149853766264000,11.83326416015625,-31.36907196044922,10.52691650390625,-9.2000732421875
1773149853776300000,11.843300048828125,-31.202054977416992,11.080299377441406,-9.431831359863281
1773149853786337000,11.8533369140625,-30.79722785949707,11.489028930664062,-9.251480102539062
1773149853796373200,11.863373291015625,-30.6953182220459,12.160636901855469,-9.350334167480469
1773149853806409200,11.8734091796875,-30.303071975708008,12.80487060546875,-9.385673522949219
1773149853816445200,11.883445068359375,-29.99869155883789,13.189590454101562,-9.266639709472656
1773149853826481200,11.893481201171875,-29.871498107910156,13.365318298339844,-9.488243103027344
1773149853836518100,11.90351806640625,-29.378026962280273,13.712409973144531,-9.806320190429688
1773149853846554000,11.91355419921875,-29.016870498657227,14.111076354980469,-10.108985900878906
1773149853856590000,11.923590087890625,-28.7427978515625,14.250137329101562,-10.547050476074219
1773149853866626000,11.9336259765625,-28.355915069580078,14.475059509277344,-11.021095275878906
1773149853876662000,11.943662109375,-28.118515014648438,14.503532409667969,-11.288261413574219
1773149853886699000,11.953698974609376,-28.129804611206055,14.657569885253906,-11.395355224609375
1773149853896735000,11.96373486328125,-28.141281127929688,14.779548645019531,-11.343719482421875
1773149853906771000,11.97377099609375,-28.312129974365234,14.7335205078125,-11.018272399902344
1773149853916807200,11.98380712890625,-28.3626651763916,14.63104248046875,-10.738502502441406
1773149853926843100,11.993843017578126,-28.581111907958984,14.581329345703125,-10.679008483886719
1773149853936880000,12.003880126953124,-28.581642150878906,14.500541687011719,-10.864349365234375
1773149853946916000,12.013916015625,-28.720163345336914,14.58843994140625,-10.977890014648438
1773149853956952000,12.0239521484375,-28.375301361083984,14.901283264160156,-11.073196411132812
1773149853966988000,12.033988037109374,-28.738197326660156,15.16741943359375,-11.311233520507812
1773149853977025000,12.04402490234375,-28.723567962646484,15.517829895019531,-11.382492065429688
1773149853987061000,12.05406103515625,-28.661767959594727,15.602561950683594,-11.307563781738281
1773149853997097000,12.064096923828124,-28.496387481689453,15.710525512695312,-11.448257446289062
1773149854007133000,12.0741328125,-27.768924713134766,16.00743865966797,-11.609298706054688
1773149854017169000,12.0841689453125,-27.791139602661133,15.887924194335938,-11.805450439453125
1773149854027206000,12.094205810546875,-27.749692916870117,16.060585021972656,-11.942695617675781
1773149854037242000,12.1042421875,-27.64350700378418,16.483505249023438,-11.739936828613281
1773149854047278000,12.114278076171875,-27.85926628112793,16.85186767578125,-11.169746398925781
1773149854057314000,12.12431396484375,-28.013568878173828,16.930419921875,-10.548606872558594
1773149854067350300,12.134350341796875,-28.274831771850586,17.00048828125,-9.912788391113281
1773149854077387000,12.144386962890625,-28.627592086791992,16.964187622070312,-9.547630310058594
1773149854087423000,12.154423095703125,-28.672340393066406,16.598297119140625,-9.373802185058594
1773149854097459200,12.164459228515625,-28.790143966674805,16.313385009765625,-9.4268798828125
1773149854107495200,12.1744951171875,-28.801292419433594,16.111495971679688,-9.70404052734375
1773149854117531100,12.18453125,-29.060237884521484,15.978645324707031,-9.917427062988281
1773149854127568100,12.194568115234375,-29.062055587768555,15.911422729492188,-10.191764831542969
1773149854137604000,12.20460400390625,-28.75069236755371,15.828147888183594,-10.196495056152344
1773149854147640000,12.21464013671875,-28.634567260742188,15.671333312988281,-10.061798095703125
1773149854157676000,12.224676025390625,-28.494964599609375,15.808815002441406,-9.929115295410156
1773149854167712000,12.2347119140625,-28.522890090942383,15.780784606933594,-9.707275390625
1773149854177749200,12.244749267578126,-28.5645694732666,15.87969970703125,-9.342536926269531
1773149854187785200,12.25478515625,-28.568134307861328,15.868675231933594,-8.84979248046875
1773149854197821200,12.2648212890625,-28.54695701599121,16.017845153808594,-8.502098083496094
1773149854207857200,12.274857177734376,-28.72675323486328,15.810981750488281,-8.653358459472656
1773149854217898000,12.28489794921875,-28.872785568237305,15.68133544921875,-8.678085327148438
1773149854227934000,12.294933837890625,-29.01879119873047,15.427734375,-8.912132263183594
1773149854237970000,12.304969970703125,-28.79291534423828,15.374290466308594,-9.22271728515625
1773149854248006000,12.315005859375,-28.87562370300293,15.264205932617188,-9.67901611328125
1773149854258041900,12.325041748046875,-28.66600799560547,15.065536499023438,-10.080734252929688
1773149854268079000,12.3350791015625,-28.45332908630371,15.059219360351562,-10.503761291503906
1773149854278115000,12.345114990234375,-28.63326644897461,14.937515258789062,-10.842643737792969
1773149854288151000,12.355151123046875,-28.481822967529297,14.887870788574219,-11.15533447265625
1773149854298187000,12.36518701171875,-28.37531089782715,14.737693786621094,-11.221199035644531
1773149854308223000,12.375222900390625,-28.311614990234375,14.7562255859375,-11.197288513183594
1773149854318260000,12.385260009765625,-28.114999771118164,14.79833984375,-11.322235107421875
1773149854328296000,12.3952958984375,-28.305294036865234,14.666824340820312,-11.208106994628906
1773149854338332000,12.405331787109375,-28.196008682250977,14.653274536132812,-10.979095458984375
1773149854348368000,12.415367919921875,-28.547935485839844,14.62005615234375,-11.029678344726562
1773149854358404900,12.42540478515625,-28.528600692749023,14.448356628417969,-10.9671630859375
1773149854368440800,12.43544091796875,-28.589990615844727,14.584014892578125,-10.935317993164062
1773149854378476800,12.445476806640626,-28.484111785888672,14.554588317871094,-10.912506103515625
1773149854388513000,12.455512939453126,-28.421459197998047,14.559844970703125,-10.593376159667969
1773149854398549000,12.465549072265626,-28.811023712158203,14.602645874023438,-10.759536743164062
1773149854408586000,12.4755859375,-28.957626342773438,14.454841613769531,-10.523147583007812
1773149854418622000,12.4856220703125,-29.18562126159668,14.279853820800781,-10.185943603515625
1773149854428658000,12.495657958984374,-29.5207462310791,14.1197509765625,-9.753013610839844
1773149854438694000,12.50569384765625,-29.613866806030273,14.0694580078125,-9.287635803222656
1773149854448731000,12.51573095703125,-30.01925277709961,13.797584533691406,-8.793907165527344
1773149854458768000,12.525767822265625,-30.133472442626953,13.952476501464844,-8.416046142578125
1773149854468803800,12.535803955078125,-30.433683395385742,14.038818359375,-7.9951171875
1773149854478839800,12.54583984375,-30.69672966003418,13.895668029785156,-7.610130310058594
1773149854488875800,12.555875732421875,-30.933948516845703,13.645042419433594,-7.1555938720703125
1773149854498913000,12.5659130859375,-30.92119789123535,13.24688720703125,-6.6920318603515625
1773149854508949000,12.575948974609375,-31.220062255859375,13.013076782226562,-6.651054382324219
1773149854518985000,12.58598486328125,-31.19864845275879,12.854354858398438,-6.7487335205078125
1773149854529021000,12.59602099609375,-31.454439163208008,12.502159118652344,-6.903831481933594
1773149854539058000,12.606057861328125,-31.654541015625,12.253532409667969,-7.178955078125
1773149854549094000,12.616093994140625,-31.828489303588867,11.835739135742188,-7.136260986328125
1773149854559129900,12.6261298828125,-31.673519134521484,11.650253295898438,-7.1201629638671875
1773149854569165800,12.636165771484375,-31.792694091796875,11.579856872558594,-7.1903076171875
1773149854579202000,12.6462021484375,-31.689212799072266,11.415901184082031,-6.8468475341796875
1773149854589238800,12.65623876953125,-31.760746002197266,11.248115539550781,-6.685943603515625
1773149854599274800,12.666274658203125,-31.707651138305664,11.035987854003906,-6.506706237792969
1773149854609311000,12.67631103515625,-31.886484146118164,11.00274658203125,-6.1485443115234375
1773149854619347000,12.686346923828125,-31.741973876953125,10.964248657226562,-5.9015350341796875
1773149854629384000,12.696384033203126,-31.78285789489746,10.812149047851562,-5.469642639160156
1773149854639420200,12.706420166015626,-31.484752655029297,10.7427978515625,-5.282981872558594
1773149854649456000,12.7164560546875,-31.650604248046875,10.724449157714844,-4.7872161865234375
1773149854659492000,12.7264921875,-31.962793350219727,10.655632019042969,-4.5348052978515625
1773149854669528000,12.736528076171876,-31.964874267578125,10.608261108398438,-4.263031005859375
1773149854679565000,12.74656494140625,-31.91216278076172,10.71795654296875,-4.123023986816406
1773149854689601000,12.75660107421875,-31.768407821655273,10.547805786132812,-3.6943588256835938
1773149854699637000,12.766636962890624,-31.711708068847656,10.563865661621094,-3.5240325927734375
1773149854709673000,12.7766728515625,-31.6206111907959,10.440162658691406,-3.1920242309570312
1773149854719710000,12.7867099609375,-31.689577102661133,10.357208251953125,-2.8417129516601562
